time,seconds_elapsed,z,y,x
1760898514365137000,0.217136962890625,0.19481563568115234,0.05198991298675537,0.071889728307724
1760898514374825200,0.2268251953125,0.3222818374633789,0.036257147789001465,0.09077094495296478
1760898514384513300,0.23651318359375,0.35393524169921875,0.021668314933776855,0.0849093347787857
1760898514394201600,0.24620166015625,0.287445068359375,0.03771042823791504,0.11039810627698898
1760898514403889700,0.2558896484375,0.16487407684326172,0.06850898265838623,0.07507200539112091
1760898514413578000,0.265577880859375,0.13230133056640625,0.09226131439208984,0.04146767407655716
1760898514423266000,0.27526611328125,0.15227413177490234,0.13142192363739014,0.019278399646282196
1760898514432954400,0.284954345703125,0.06877613067626953,0.13374555110931396,0.01660837233066559
1760898514442642400,0.294642333984375,-0.13261127471923828,0.1417853832244873,0.057558007538318634
1760898514452330800,0.304330810546875,-0.29191112518310547,0.20277774333953857,0.22072911262512207
1760898514462018800,0.314018798828125,-0.23752117156982422,0.3561666011810303,0.4368399381637573
1760898514471707100,0.32370703125,-0.0637063980102539,0.4990321397781372,0.6917279958724976
1760898514481395200,0.333395263671875,0.080474853515625,0.5894330739974976,0.9315154552459717
1760898514491083500,0.34308349609375,0.15758800506591797,0.6187093257904053,1.0311458110809326
1760898514500771600,0.352771484375,0.19908714294433594,0.5362215042114258,0.9004669785499573
1760898514510460000,0.3624599609375,0.23443889617919922,0.3602403402328491,0.7420846223831177
1760898514520148000,0.37214794921875,0.32770729064941406,0.12009632587432861,0.6488513946533203
1760898514529836300,0.381836181640625,0.33100128173828125,-0.069549560546875,0.5180957317352295
1760898514539524400,0.3915244140625,0.13020706176757812,-0.17544925212860107,0.277910441160202
1760898514549212700,0.401212646484375,-0.09709358215332031,-0.1470775604248047,0.1549537479877472
1760898514558900700,0.410900634765625,-0.2635631561279297,-0.13682079315185547,0.14048734307289124
1760898514568589000,0.420589111328125,-0.36791419982910156,-0.15221035480499268,0.2765323221683502
1760898514578277000,0.430277099609375,-0.4133176803588867,-0.09885740280151367,0.5146317481994629
1760898514587965400,0.43996533203125,-0.4530982971191406,-0.1432180404663086,0.6327385902404785
1760898514597653800,0.44965380859375,-0.43729305267333984,-0.1559227705001831,0.5108350515365601
1760898514607341800,0.459341796875,-0.4882164001464844,-0.2563086748123169,0.3298743963241577
1760898514617030000,0.46902978515625,-0.5252685546875,-0.3898235559463501,0.1695246398448944
1760898514626718200,0.47871826171875,-0.5394906997680664,-0.5934573411941528,0.10569769144058228
1760898514636406500,0.488406494140625,-0.4570150375366211,-0.7705257534980774,0.03156968951225281
1760898514646094600,0.498094482421875,-0.3543119430541992,-0.9017378091812134,-0.14643368124961853
1760898514655783000,0.507782958984375,-0.37052154541015625,-1.0046954154968262,-0.29345810413360596
1760898514665471000,0.517470947265625,-0.5158271789550781,-1.090227484703064,-0.4104342460632324
1760898514675159000,0.527158935546875,-0.7172460556030273,-1.1337145566940308,-0.4370006024837494
1760898514684847400,0.536847412109375,-0.8299808502197266,-1.1465801000595093,-0.3041842579841614
1760898514694535700,0.54653564453125,-0.7594413757324219,-1.196588397026062,-0.0853012204170227
1760898514704223700,0.5562236328125,-0.5666866302490234,-1.2765529155731201,0.06056562066078186
1760898514713912000,0.565912109375,-0.3200101852416992,-1.3391410112380981,0.04729968309402466
1760898514723600100,0.57560009765625,-0.14625930786132812,-1.3950437307357788,-0.14799147844314575
1760898514733288400,0.585288330078125,-0.047730445861816406,-1.4646375179290771,-0.3451838791370392
1760898514742976500,0.5949765625,-0.045441627502441406,-1.5540562868118286,-0.5372737646102905
1760898514752664800,0.604664794921875,-0.09926986694335938,-1.5944827795028687,-0.7671816945075989
1760898514762353000,0.614352783203125,-0.14682865142822266,-1.509091854095459,-0.9364256858825684
1760898514772041200,0.624041259765625,-0.04305267333984375,-1.400768756866455,-1.009765625
1760898514781729300,0.633729248046875,0.0965566635131836,-1.2665953636169434,-0.9597430229187012
1760898514791417600,0.64341748046875,0.11667060852050781,-1.1442890167236328,-0.7915793657302856
1760898514801105700,0.653105712890625,0.03364086151123047,-1.0789248943328857,-0.5863237380981445
1760898514810794000,0.6627939453125,-0.174224853515625,-1.0758841037750244,-0.39703845977783203
1760898514820482000,0.67248193359375,-0.3218822479248047,-1.0333231687545776,-0.2526453137397766
1760898514830170400,0.68217041015625,-0.29812145233154297,-0.9556777477264404,-0.19744853675365448
1760898514839858400,0.6918583984375,-0.15329456329345703,-0.7721588015556335,-0.19225990772247314
1760898514849546800,0.701546630859375,0.04926872253417969,-0.5777696967124939,-0.066640704870224
1760898514859234800,0.71123486328125,0.2805938720703125,-0.4397793114185333,0.03932812809944153
1760898514868923100,0.720923095703125,0.40904903411865234,-0.43487370014190674,-0.03399870544672012
1760898514878611500,0.730611572265625,0.3239784240722656,-0.4257437288761139,-0.1738821566104889
1760898514888299500,0.740299560546875,0.06688117980957031,-0.4981541633605957,-0.3636026680469513
1760898514897987800,0.74998779296875,-0.1900644302368164,-0.5151352882385254,-0.6301434636116028
1760898514907676000,0.759676025390625,-0.3529939651489258,-0.48282331228256226,-0.7873297929763794
1760898514917364200,0.7693642578125,-0.24477577209472656,-0.553666353225708,-0.8631347417831421
1760898514927052300,0.77905224609375,0.012568473815917969,-0.7888095378875732,-0.8509064316749573
1760898514936740600,0.78874072265625,0.379241943359375,-0.7890307903289795,-1.1583081483840942
1760898514946428700,0.7984287109375,1.918691635131836,-1.3032453060150146,-2.547652006149292
1760898514956117000,0.808116943359375,3.8977270126342773,-1.6238746643066406,-3.1984317302703857
1760898514965805000,0.81780517578125,4.39240837097168,-1.610945701599121,-3.2108521461486816
1760898514975493400,0.827493408203125,2.9345407485961914,-1.1885199546813965,-2.202169418334961
1760898514985181400,0.837181396484375,1.3433055877685547,-0.9912108182907104,-1.4729927778244019
1760898514994869800,0.846869873046875,0.35976409912109375,-0.7779101729393005,-0.860878050327301
1760898515004558000,0.85655810546875,-0.2517967224121094,-0.5616680383682251,-0.5011574029922485
1760898515014246100,0.86624609375,-0.6665573120117188,-0.4865116775035858,-0.23008227348327637
1760898515023934500,0.8759345703125,-0.6794748306274414,0.021350562572479248,-0.3751630187034607
1760898515033622500,0.88562255859375,-0.9803924560546875,0.05198478698730469,-0.24650853872299194
1760898515043310800,0.895310791015625,-1.3816633224487305,0.19151651859283447,0.039030998945236206
1760898515052999000,0.9049990234375,-1.3108587265014648,0.734226405620575,-0.011012107133865356
1760898515062687200,0.914687255859375,-0.7877826690673828,1.2736783027648926,-0.13604027032852173
1760898515072375300,0.924375244140625,0.5928583145141602,1.2081693410873413,-0.5076821446418762
1760898515082063600,0.934063720703125,0.9636726379394531,-0.0985250473022461,1.175336480140686
1760898515091751700,0.943751708984375,3.532986640930176,-0.735968828201294,2.0933315753936768
1760898515101440000,0.95343994140625,3.615342140197754,0.33200979232788086,0.512945830821991
1760898515111128000,0.963128173828125,2.4655542373657227,1.9867675304412842,-0.5838448405265808
1760898515120816400,0.97281640625,0.11055278778076172,0.8230350017547607,1.4965178966522217
1760898515130504700,0.982504638671875,-1.2858953475952148,-0.3170238137245178,0.8222265243530273
1760898515140192800,0.99219287109375,-1.0306625366210938,-0.48536401987075806,-0.3506482243537903
1760898515149881000,1.001881103515625,-0.8310213088989258,-0.07541275024414062,-0.9880197048187256
1760898515159569200,1.011569091796875,-1.4855222702026367,0.354387104511261,-0.8952959775924683
1760898515169257500,1.021257568359375,-1.5274982452392578,0.08741724491119385,-2.60434627532959
1760898515178945500,1.030945556640625,-0.4769430160522461,-1.1313422918319702,-4.3408613204956055
1760898515188633900,1.0406337890625,0.2867288589477539,-1.607922077178955,-4.701340675354004
1760898515198322000,1.050322021484375,0.7718486785888672,-0.8042600154876709,-2.860814094543457
1760898515208010200,1.06001025390625,0.1384563446044922,0.6258337497711182,-0.2547132968902588
1760898515217698300,1.0696982421875,-1.005502700805664,1.4695435762405396,0.43612879514694214
1760898515227386600,1.07938671875,-0.7653312683105469,1.5434610843658447,0.5641859769821167
1760898515237074700,1.08907470703125,-0.7481460571289062,1.1471285820007324,0.18744277954101562
1760898515246763000,1.098762939453125,-1.013392448425293,0.9911954402923584,-0.6228619813919067
1760898515256451300,1.108451416015625,-0.7027063369750977,1.2508997917175293,-1.2299696207046509
1760898515266139400,1.118139404296875,-0.9682912826538086,1.116601824760437,-0.4500458240509033
1760898515275827700,1.12782763671875,-0.7436761856079102,0.687841534614563,0.48561787605285645
1760898515285515800,1.137515869140625,-0.5164556503295898,0.42935067415237427,0.5303654670715332
1760898515295204000,1.1472041015625,-0.3763847351074219,1.1149482727050781,-0.0795966386795044
1760898515304892200,1.15689208984375,-0.5503139495849609,1.7572628259658813,-0.1526392102241516
1760898515314580500,1.16658056640625,-0.5232429504394531,1.9478566646575928,0.22438561916351318
1760898515324268800,1.176268798828125,-0.26810359954833984,1.881428599357605,0.33573031425476074
1760898515333956900,1.185956787109375,-0.009486198425292969,1.712003469467163,0.2852320075035095
1760898515343645200,1.195645263671875,0.28110790252685547,1.5451654195785522,0.18350279331207275
1760898515353333200,1.205333251953125,0.4800891876220703,1.4010940790176392,0.05024069547653198
1760898515363021600,1.215021484375,0.43648719787597656,1.1927675008773804,-0.07084554433822632
1760898515372710000,1.2247099609375,0.2660818099975586,0.9776849746704102,-0.4227472245693207
1760898515382398000,1.23439794921875,0.15483379364013672,0.8528124094009399,-0.8076543807983398
1760898515392086300,1.244086181640625,-0.08743953704833984,0.6328577399253845,-0.8866614103317261
1760898515401774300,1.2537744140625,-0.4596242904663086,0.49712851643562317,-0.8642967939376831
1760898515411462700,1.263462646484375,-0.7756872177124023,0.6593546867370605,-0.6730779409408569
1760898515421150700,1.273150634765625,-0.9414272308349609,0.5667680501937866,-0.4458773136138916
1760898515430839000,1.282839111328125,-1.0103836059570312,0.3547531068325043,-0.6114444732666016
1760898515440527400,1.29252734375,-1.1968107223510742,0.020961403846740723,-0.6934701800346375
1760898515450215400,1.30221533203125,-1.3007564544677734,-0.24068576097488403,-0.6606691479682922
1760898515459903700,1.31190380859375,-1.1903572082519531,-0.2917242646217346,-0.5306698083877563
1760898515469592000,1.321592041015625,-1.0382823944091797,-0.18549281358718872,-0.3281009793281555
1760898515479280000,1.331280029296875,-0.6123208999633789,-0.3207980990409851,-0.22086530923843384
1760898515488968400,1.340968505859375,-0.2991600036621094,-0.5966770052909851,-0.3944830596446991
1760898515498656500,1.350656494140625,-0.3492860794067383,-0.866959810256958,-0.557591438293457
1760898515508344800,1.3603447265625,-0.46062374114990234,-0.9576422572135925,-0.33840590715408325
1760898515518033200,1.370033203125,-0.6467399597167969,-1.0148943662643433,0.05530160665512085
1760898515527721200,1.37972119140625,-0.8780460357666016,-0.9366550445556641,0.3707054555416107
1760898515537409500,1.389409423828125,-1.0351219177246094,-0.6790423393249512,0.5919716358184814
1760898515547097900,1.399097900390625,-0.923975944519043,-0.4056929349899292,0.8001855611801147
1760898515556786000,1.408785888671875,-0.6466827392578125,-0.2674463987350464,1.0741521120071411
1760898515566474200,1.41847412109375,-0.3946561813354492,-0.3672816753387451,1.3865439891815186
1760898515576162600,1.42816259765625,-0.29621410369873047,-0.5415199995040894,1.4363915920257568
1760898515585850600,1.4378505859375,-0.31264209747314453,-0.8166768550872803,1.13744056224823
1760898515595539000,1.4475390625,-0.3819751739501953,-1.1900482177734375,0.5948300957679749
1760898515605227000,1.45722705078125,-0.2811908721923828,-1.885604739189148,-0.2438640594482422
1760898515614915300,1.466915283203125,-0.4247751235961914,-2.4352543354034424,-0.9603299498558044
1760898515624603600,1.476603759765625,-0.7252054214477539,-2.4734580516815186,-1.2046306133270264
1760898515634292000,1.4862919921875,-0.844691276550293,-2.1795525550842285,-1.0154354572296143
1760898515643980000,1.49597998046875,-0.8847141265869141,-1.6682848930358887,-0.9565232992172241
1760898515653668400,1.50566845703125,-0.8033609390258789,-1.104677677154541,-0.5183000564575195
1760898515663356700,1.515356689453125,-0.7006921768188477,-0.5612969398498535,0.02241837978363037
1760898515673044700,1.525044677734375,-0.6229619979858398,0.014693856239318848,0.5709289908409119
1760898515682733000,1.534733154296875,-0.4878501892089844,0.47144263982772827,1.189816951751709
1760898515692421400,1.54442138671875,-0.39559173583984375,0.80892014503479,1.6052207946777344
1760898515702109400,1.554109375,-0.37479400634765625,0.8943433165550232,1.434198260307312
1760898515711797800,1.5637978515625,-0.8239898681640625,0.7542758584022522,0.8553966283798218
1760898515721486000,1.573486083984375,-1.365077018737793,0.5490156412124634,0.6334148645401001
1760898515731174100,1.583174072265625,-1.4861488342285156,0.22698116302490234,0.9135862588882446
1760898515740862500,1.592862548828125,-1.0245304107666016,-0.02969074249267578,0.6230778694152832
1760898515750550800,1.60255078125,-0.5540475845336914,-0.18703550100326538,0.043921470642089844
1760898515760239000,1.612239013671875,0.1111288070678711,-0.26207125186920166,-0.035579681396484375
1760898515769927200,1.62192724609375,0.6519804000854492,-0.1767423152923584,0.15419256687164307
1760898515779615500,1.631615478515625,0.7992839813232422,-0.014116525650024414,0.4672854542732239
1760898515789303800,1.6413037109375,0.7175006866455078,0.18853622674942017,0.8279626965522766
1760898515798992000,1.650991943359375,0.560755729675293,0.2859756350517273,1.0339993238449097
1760898515808680200,1.66068017578125,0.34951019287109375,0.2418285608291626,1.2709169387817383
1760898515818368500,1.670368408203125,0.7691841125488281,-0.09776771068572998,1.4274520874023438
1760898515828056800,1.680056884765625,1.586660385131836,-0.5130405426025391,1.1360772848129272
1760898515837745000,1.689744873046875,2.17539119720459,-0.7474080324172974,0.6884618997573853
1760898515847433200,1.69943310546875,2.4457015991210938,-0.8986501693725586,0.31560471653938293
1760898515857121500,1.70912158203125,2.48966121673584,-1.1632112264633179,-0.06883811950683594
1760898515866809900,1.718809814453125,2.447450637817383,-1.2970097064971924,-0.31954944133758545
1760898515876498000,1.728497802734375,2.387460708618164,-1.0813486576080322,-0.18851488828659058
1760898515886186200,1.738186279296875,1.9063100814819336,-0.5930633544921875,0.3805374503135681
1760898515895874600,1.74787451171875,1.396646499633789,-0.05931276082992554,0.7924453020095825
1760898515905563000,1.75756298828125,1.0105676651000977,0.27504974603652954,1.192962408065796
1760898515915251000,1.7672509765625,0.5091304779052734,0.3578469455242157,1.3707809448242188
1760898515924939300,1.776939208984375,0.07795906066894531,0.17214107513427734,1.0659210681915283
1760898515934627600,1.786627685546875,-0.3742389678955078,-0.15051531791687012,0.4376240670681
1760898515944316000,1.79631591796875,-0.7286701202392578,-0.5085682272911072,-0.13757306337356567
1760898515954004000,1.80600390625,-0.47227001190185547,-0.9607601165771484,-0.42223402857780457
1760898515963692300,1.8156923828125,0.015446662902832031,-1.3369255065917969,-0.4550412595272064
1760898515973380600,1.825380615234375,0.42395782470703125,-1.5914645195007324,-0.3612993359565735
1760898515983069000,1.83506884765625,1.505610466003418,-1.6997861862182617,-0.4048711657524109
1760898515992757200,1.84475732421875,2.571770668029785,-1.2487449645996094,-0.1330541968345642
1760898516002445300,1.8544453125,3.0142250061035156,-0.5864058136940002,0.5847892761230469
1760898516012133600,1.864133544921875,2.713808059692383,0.07632791996002197,1.0968356132507324
1760898516021822000,1.873822021484375,1.889566421508789,0.6810539960861206,1.1836693286895752
1760898516031510300,1.88351025390625,0.9011697769165039,1.05100679397583,0.925144374370575
1760898516041198600,1.893198486328125,-0.1329030990600586,1.240746259689331,0.47258955240249634
1760898516050886700,1.90288671875,-0.914637565612793,1.308993935585022,-0.13257646560668945
1760898516060575000,1.912574951171875,-1.4042491912841797,1.2482186555862427,-0.7346841096878052
1760898516070263300,1.92226318359375,-1.7611732482910156,1.0872608423233032,-1.040755271911621
1760898516079951600,1.93195166015625,-1.895615577697754,0.957085371017456,-1.0319057703018188
1760898516089639700,1.9416396484375,-1.6409902572631836,0.7695374488830566,-0.7253361940383911
1760898516099328000,1.951327880859375,-0.826350212097168,0.5265954732894897,-0.3564959764480591
1760898516109016300,1.961016357421875,0.4943580627441406,0.17000389099121094,-0.10949170589447021
1760898516118704600,1.97070458984375,2.019415855407715,-0.07439076900482178,-0.45916008949279785
1760898516128393000,1.98039306640625,2.8289175033569336,0.03245633840560913,-0.905348539352417
1760898516138081300,1.990081298828125,2.2927894592285156,0.3243933320045471,-0.7157703638076782
1760898516147769300,1.999769287109375,1.269148826599121,0.5113575458526611,-0.2605440616607666
1760898516157457700,2.009457763671875,0.19772911071777344,0.6093261241912842,-0.150549054145813
1760898516167146000,2.01914599609375,-0.773737907409668,0.7515578269958496,-0.4335176944732666
1760898516176834300,2.028834228515625,-1.6267690658569336,0.914676308631897,-0.694145679473877
1760898516186522600,2.038522705078125,-2.1906771659851074,0.9469494819641113,-0.7004029750823975
1760898516196211000,2.0482109375,-2.262054920196533,0.8068603277206421,-0.7472797632217407
1760898516205899000,2.05789892578125,-2.033677577972412,0.5548082590103149,-0.7799477577209473
1760898516215587300,2.06758740234375,-1.6877517700195312,0.34460216760635376,-0.7084469795227051
1760898516225275600,2.077275634765625,-1.1773157119750977,0.1622905135154724,-0.5724533200263977
1760898516234964000,2.0869638671875,-0.6608467102050781,-0.07148176431655884,-0.4059893488883972
1760898516244652300,2.09665234375,-0.3149566650390625,-0.3698572516441345,-0.2871742248535156
1760898516254340600,2.106340576171875,-0.07674598693847656,-0.709107518196106,-0.26752638816833496
1760898516264028700,2.116028564453125,0.27866458892822266,-1.1210463047027588,-0.2719883918762207
1760898516273717000,2.125717041015625,0.7608604431152344,-1.4740923643112183,-0.2686864137649536
1760898516283405300,2.1354052734375,1.103281021118164,-1.7208853960037231,-0.16344642639160156
1760898516293093600,2.14509375,1.3739204406738281,-1.8289282321929932,0.03842133283615112
1760898516302782000,2.154781982421875,1.5448198318481445,-1.7768288850784302,0.13764351606369019
1760898516312470300,2.16447021484375,1.6021747589111328,-1.5681369304656982,0.13246333599090576
1760898516322158600,2.17415869140625,1.360600471496582,-1.34353506565094,0.06541764736175537
1760898516331847000,2.183846923828125,1.0641918182373047,-1.1717102527618408,-0.015313923358917236
1760898516341535000,2.193534912109375,0.6938695907592773,-0.9735440015792847,-0.1371336579322815
1760898516351223300,2.203223388671875,0.3164043426513672,-0.7903095483779907,-0.19707408547401428
1760898516360911600,2.21291162109375,0.05071735382080078,-0.593177080154419,-0.2344878911972046
1760898516370600000,2.222599853515625,-0.0990438461303711,-0.4357053339481354,-0.25984054803848267
1760898516380288300,2.232288330078125,-0.12870502471923828,-0.33786541223526,-0.35104143619537354
1760898516389976600,2.2419765625,-0.13397884368896484,-0.3246539831161499,-0.47959160804748535
1760898516399665000,2.251664794921875,0.047326087951660156,-0.3691079914569855,-0.5228816270828247
1760898516409353200,2.261353271484375,0.1908111572265625,-0.4009554982185364,-0.4961676597595215
1760898516419041300,2.271041259765625,0.1396036148071289,-0.3681725859642029,-0.42206963896751404
1760898516428729900,2.280729736328125,0.051812171936035156,-0.30379587411880493,-0.35249853134155273
1760898516438418000,2.29041796875,0.0752553939819336,-0.19784057140350342,-0.2575608491897583
1760898516448106200,2.300106201171875,0.133026123046875,-0.1918928623199463,-0.11288312822580338
1760898516457794600,2.309794677734375,0.0959787368774414,-0.24021172523498535,-0.05663299560546875
1760898516467483000,2.31948291015625,-0.012144088745117188,-0.28264451026916504,-0.08403424918651581
1760898516477171200,2.329171142578125,-0.1726846694946289,-0.3060324192047119,-0.0907563790678978
1760898516486859500,2.338859619140625,-0.5341310501098633,-0.26244914531707764,0.042326316237449646
1760898516496547800,2.3485478515625,-1.0346746444702148,-0.09049570560455322,0.32957524061203003
1760898516506236200,2.358236083984375,-1.4456920623779297,0.18786466121673584,0.6519128084182739
1760898516515924500,2.367924560546875,-1.6771183013916016,0.5191839933395386,0.8800205588340759
1760898516525612800,2.37761279296875,-1.595855712890625,0.8428429365158081,1.0620133876800537
1760898516535300900,2.38730078125,-1.2738676071166992,1.115478515625,1.217760682106018
1760898516544989400,2.396989501953125,-0.7301149368286133,1.234606385231018,1.3350591659545898
1760898516554677500,2.406677490234375,0.04024791717529297,1.1836422681808472,1.3125656843185425
1760898516564365800,2.41636572265625,0.7988977432250977,1.0418626070022583,1.2583818435668945
1760898516574054100,2.42605419921875,1.413081169128418,0.861835241317749,1.1642287969589233
1760898516583742500,2.435742431640625,1.6978998184204102,0.6135084629058838,0.9331547021865845
1760898516593430800,2.4454306640625,1.6977119445800781,0.35540688037872314,0.5958124399185181
1760898516603119000,2.455119140625,1.427785873413086,0.13395071029663086,0.1822071671485901
1760898516612807400,2.464807373046875,1.022237777709961,-0.05103158950805664,-0.22120532393455505
1760898516622495700,2.474495849609375,0.5764083862304688,-0.19524335861206055,-0.5801270008087158
1760898516632184000,2.48418408203125,0.20433425903320312,-0.21461117267608643,-0.7866905927658081
1760898516641872400,2.493872314453125,-0.028043746948242188,-0.15017271041870117,-0.8793582916259766
1760898516651560700,2.503560791015625,-0.2170257568359375,-0.0861583948135376,-0.8250133991241455
1760898516661249000,2.5132490234375,-0.40600109100341797,-0.006936907768249512,-0.6666594743728638
1760898516670937300,2.522937255859375,-0.6000165939331055,0.09331357479095459,-0.5662650465965271
1760898516680625700,2.532625732421875,-0.7420082092285156,0.2196868658065796,-0.46081873774528503
1760898516690314000,2.54231396484375,-0.784520149230957,0.3095782995223999,-0.27692440152168274
1760898516709690600,2.561690673828125,-0.5387477874755859,0.33216989040374756,0.11007806658744812
1760898516719379000,2.57137890625,-0.37470054626464844,0.2618345022201538,0.20611685514450073
1760898516729067300,2.5810673828125,-0.22104930877685547,0.18290305137634277,0.22792941331863403
1760898516738755600,2.590755615234375,-0.05848121643066406,0.0611802339553833,0.17449161410331726
1760898516748444000,2.60044384765625,0.04159355163574219,-0.10344827175140381,0.12043201923370361
1760898516767820500,2.619820556640625,0.1358022689819336,-0.23528063297271729,0.11019474267959595
1760898516777508900,2.6295087890625,0.17301368713378906,-0.27823448181152344,0.12517118453979492
1760898516787197200,2.639197265625,0.21951675415039062,-0.2965664863586426,0.15420672297477722
1760898516796885500,2.648885498046875,0.2706165313720703,-0.31012260913848877,0.1834038496017456
1760898516806573800,2.65857373046875,0.32631778717041016,-0.2715829610824585,0.19944950938224792
1760898516816262100,2.66826220703125,0.35333251953125,-0.24857759475708008,0.19347608089447021
1760898516825950500,2.677950439453125,0.4043416976928711,-0.22767388820648193,0.20447498559951782
1760898516835638800,2.687638671875,0.44602394104003906,-0.1857539415359497,0.21304303407669067
1760898516845327000,2.6973271484375,0.4261026382446289,-0.12825477123260498,0.21393561363220215
1760898516855015400,2.707015380859375,0.35437870025634766,-0.10768330097198486,0.17805054783821106
1760898516864703700,2.716703857421875,0.2404632568359375,-0.03262782096862793,0.11992400884628296
1760898516884080400,2.736080322265625,-0.09491157531738281,0.02222299575805664,-0.00593915581703186
1760898516903457000,2.75545703125,-0.37073802947998047,0.016079425811767578,-0.1175268292427063
1760898516913145300,2.765145263671875,-0.46295166015625,-0.0031491518020629883,-0.16744250059127808
1760898516932522000,2.78452197265625,-0.41880226135253906,0.05587053298950195,-0.13325795531272888
1760898516942210300,2.794210205078125,-0.2590360641479492,0.0703805685043335,-0.1098366379737854
1760898516951898600,2.803898681640625,-0.09508037567138672,0.060851097106933594,-0.01946324110031128
1760898516961587000,2.8135869140625,0.04931163787841797,0.04097390174865723,0.052907735109329224
1760898516971275300,2.823275146484375,0.13130950927734375,0.029736757278442383,0.08400535583496094
1760898516980963600,2.832963623046875,0.17499160766601562,-0.006242036819458008,0.11665043234825134
1760898516990652000,2.84265185546875,0.1900033950805664,-0.04740786552429199,0.07813969254493713
1760898517000340200,2.85234033203125,0.17632579803466797,-0.12627434730529785,0.029652684926986694
1760898517010028500,2.862028564453125,0.13381290435791016,-0.16514348983764648,-0.000280529260635376
1760898517019716900,2.871716796875,0.05276203155517578,-0.19606876373291016,0.035315096378326416
1760898517029405200,2.8814052734375,-0.047738075256347656,-0.18980669975280762,0.07387146353721619
1760898517039093500,2.891093505859375,-0.038857460021972656,-0.13244056701660156,0.10691109299659729
1760898517048781800,2.90078173828125,0.00765228271484375,-0.08707237243652344,0.08722403645515442
1760898517068158500,2.920158447265625,0.10323333740234375,-0.04187452793121338,0.0659089982509613
1760898517077847000,2.929846923828125,0.10032176971435547,-0.020836949348449707,0.04565975069999695
1760898517087535400,2.939535400390625,0.08841896057128906,-0.03975546360015869,-0.016344279050827026
1760898517097223700,2.9492236328125,0.05833244323730469,-0.041820645332336426,-0.04911002516746521
1760898517106912000,2.958912109375,0.05735969543457031,-0.07401549816131592,-0.11911565065383911
1760898517116600300,2.968600341796875,0.02358245849609375,-0.0968242883682251,-0.15535113215446472
1760898517126288600,2.97828857421875,-0.08057975769042969,-0.1173396110534668,-0.1629728078842163
1760898517135977000,2.98797705078125,-0.1931743621826172,-0.09590315818786621,-0.1422494351863861
1760898517145665300,2.997665283203125,-0.1547098159790039,-0.08145368099212646,-0.1739790439605713
1760898517155353600,3.007353515625,-0.2555990219116211,-0.1349778175354004,-0.11671668291091919
1760898517165042000,3.0170419921875,-0.3434886932373047,-0.11532175540924072,0.00022986531257629395
1760898517174730200,3.026730224609375,-0.4419879913330078,0.01917874813079834,0.06243672966957092
1760898517184418600,3.03641845703125,-0.3241090774536133,0.15962255001068115,0.01742345094680786
1760898517194107000,3.04610693359375,-0.029854774475097656,0.22475826740264893,-0.07286423444747925
1760898517203795200,3.055795166015625,0.2176351547241211,0.22471046447753906,-0.1043185293674469
1760898517213483500,3.0654833984375,0.3116035461425781,0.28311729431152344,-0.03522154688835144
1760898517223172000,3.075172119140625,0.33963871002197266,0.3392212390899658,0.03572794795036316
1760898517232860400,3.0848603515625,0.36893177032470703,0.4228212833404541,0.058584392070770264
1760898517242548700,3.094548828125,0.39952564239501953,0.4322988986968994,0.0023730993270874023
1760898517252237000,3.104237060546875,0.40303611755371094,0.2929948568344116,-0.1451806128025055
1760898517261925400,3.11392529296875,0.2292327880859375,0.22398531436920166,-0.21896585822105408
1760898517271613700,3.12361376953125,0.08791351318359375,0.11231398582458496,-0.3287259340286255
1760898517281302000,3.133302001953125,-0.026403427124023438,0.0070569515228271484,-0.39794671535491943
1760898517290990300,3.142990234375,-0.12380218505859375,-0.07139968872070312,-0.4318513572216034
1760898517300678700,3.1526787109375,-0.17190170288085938,-0.15387749671936035,-0.3798481225967407
1760898517310367000,3.162366943359375,-0.2565488815307617,-0.18131256103515625,-0.24765846133232117
1760898517320055300,3.17205517578125,-0.24090194702148438,-0.2002161741256714,-0.04944390058517456
1760898517329744000,3.181743896484375,-0.11728477478027344,-0.22931325435638428,0.06375664472579956
1760898517339432200,3.19143212890625,0.09365272521972656,-0.23536711931228638,0.12178891897201538
1760898517349120500,3.20112060546875,0.23980426788330078,-0.2650473713874817,0.21434146165847778
1760898517358808800,3.210808837890625,0.2561912536621094,-0.288263738155365,0.3076980710029602
1760898517368497200,3.2204970703125,0.21539306640625,-0.2427988052368164,0.3409807085990906
1760898517378185500,3.230185546875,0.1889171600341797,-0.25624924898147583,0.3048959970474243
1760898517387873800,3.239873779296875,0.12953567504882812,-0.2380812168121338,0.18953794240951538
1760898517397562000,3.24956201171875,0.04730415344238281,-0.2171701192855835,0.06522345542907715
1760898517407250400,3.25925048828125,-0.04790210723876953,-0.1705111265182495,-0.007118701934814453
1760898517416938800,3.268938720703125,-0.1181182861328125,-0.09465408325195312,-0.06592893600463867
1760898517426627300,3.27862744140625,-0.12594318389892578,-0.010417342185974121,-0.11101922392845154
1760898517436315600,3.288315673828125,-0.0910482406616211,0.07102072238922119,-0.16124176979064941
1760898517446004000,3.29800390625,-0.032820701599121094,0.10137510299682617,-0.16916796565055847
1760898517455692300,3.3076923828125,-0.0034246444702148438,0.15183603763580322,-0.13464924693107605
1760898517465380600,3.317380615234375,0.0022363662719726562,0.19405531883239746,-0.08536174893379211
1760898517475069000,3.32706884765625,0.007939338684082031,0.2055683135986328,-0.06314989924430847
1760898517484757200,3.33675732421875,0.004088401794433594,0.179215669631958,-0.06362417340278625
1760898517494445600,3.346445556640625,-0.09872245788574219,0.09383738040924072,-0.021976172924041748
1760898517504134000,3.3561337890625,-0.1436319351196289,0.05487823486328125,-0.01046663522720337
1760898517513822500,3.365822509765625,-0.15988445281982422,0.024381160736083984,-0.010255217552185059
1760898517523510800,3.3755107421875,-0.1102447509765625,-0.040621161460876465,-0.025927752256393433
1760898517533199000,3.38519921875,-0.038064002990722656,-0.0839012861251831,0.018248438835144043
1760898517542887400,3.394887451171875,0.02349090576171875,-0.10226786136627197,0.03202223777770996
1760898517552575700,3.40457568359375,0.06997013092041016,-0.1297699213027954,0.053803086280822754
1760898517562264000,3.41426416015625,0.11578845977783203,-0.148107647895813,0.060820162296295166
1760898517571952400,3.423952392578125,0.17031192779541016,-0.16672062873840332,0.09643638134002686
1760898517581640700,3.433640625,0.1156778335571289,-0.20854830741882324,0.07060497999191284
1760898517591329000,3.4433291015625,0.047820091247558594,-0.19331073760986328,0.0599711537361145
1760898517601017300,3.453017333984375,0.046985626220703125,-0.16005432605743408,0.05071824789047241
1760898517610706000,3.462705810546875,0.05557060241699219,-0.13260185718536377,0.014801502227783203
1760898517620394200,3.472394287109375,-0.0018606185913085938,-0.09663736820220947,0.032127201557159424
1760898517630082600,3.48208251953125,-0.011266708374023438,-0.04299819469451904,0.031432926654815674
1760898517639771000,3.49177099609375,-0.006310462951660156,-0.009815096855163574,-0.025623679161071777
1760898517649459200,3.501459228515625,-0.015484809875488281,0.0033725500106811523,-0.07212170958518982
1760898517659147500,3.5111474609375,-0.02918529510498047,0.020629405975341797,-0.056187450885772705
1760898517668835800,3.5208359375,-0.03789520263671875,0.04163503646850586,-0.016450822353363037
1760898517678524200,3.530524169921875,-0.018184661865234375,0.047699928283691406,-0.009933829307556152
1760898517688212500,3.54021240234375,-0.012939453125,0.06314563751220703,-0.017427802085876465
1760898517697901000,3.549901123046875,-0.007829666137695312,0.03627192974090576,0.02249246835708618
1760898517726966000,3.578966064453125,0.026299476623535156,-0.01596510410308838,-0.03703296184539795
1760898517736654300,3.588654296875,0.04934120178222656,-0.029885292053222656,-0.007101953029632568
1760898517746342700,3.5983427734375,0.029541015625,-0.04735839366912842,0.0032500624656677246
1760898517756031000,3.608031005859375,0.02408599853515625,-0.03549158573150635,-0.005438327789306641
1760898517765719300,3.61771923828125,0.051639556884765625,-0.04711258411407471,-0.000007212162017822266
1760898517775407900,3.627407958984375,0.0552825927734375,-0.04957008361816406,-0.02797803282737732
1760898517785096200,3.63709619140625,0.09663867950439453,-0.03395843505859375,-0.0371134877204895
1760898517794784500,3.646784423828125,0.0903787612915039,-0.019408226013183594,-0.00900334119796753
1760898517804472800,3.656472900390625,0.05130767822265625,-0.005441427230834961,-0.004550278186798096
1760898517814161200,3.6661611328125,0.0316619873046875,0.008292436599731445,0.010149776935577393
1760898517823849500,3.675849365234375,0.017020225524902344,0.021785378456115723,-0.012444734573364258
1760898517833537800,3.685537841796875,-0.0020532608032226562,0.03950798511505127,-0.011074662208557129
1760898517843226400,3.695226318359375,-0.025465011596679688,0.018923163414001465,-0.00978231430053711
1760898517852914700,3.704914794921875,-0.03428363800048828,-0.006622314453125,-0.018077105283737183
1760898517862603000,3.71460302734375,-0.03814983367919922,-0.018335938453674316,-0.002857685089111328
1760898517872291300,3.724291259765625,-0.008866310119628906,-0.021602630615234375,-0.015954047441482544
1760898517881979600,3.733979736328125,0.057769775390625,-0.05006599426269531,0.004722774028778076
1760898517891668000,3.74366796875,0.09053802490234375,-0.08444702625274658,-0.016545206308364868
1760898517901356300,3.753356201171875,0.0758371353149414,-0.10523819923400879,-0.037205129861831665
1760898517911044900,3.763044921875,0.05675315856933594,-0.09808826446533203,-0.04316529631614685
1760898517920733200,3.772733154296875,0.051978111267089844,-0.06667935848236084,-0.02506306767463684
1760898517930421500,3.78242138671875,-0.06126880645751953,-0.07089447975158691,0.01591894030570984
1760898517940109800,3.79210986328125,-0.13541603088378906,-0.015118837356567383,0.036946892738342285
1760898517949798100,3.801798095703125,-0.1428375244140625,0.0242159366607666,0.05196338891983032
1760898517959486500,3.811486572265625,-0.09861946105957031,0.046570420265197754,0.036790549755096436
1760898517969174800,3.8211748046875,-0.04118156433105469,0.037308573722839355,0.015931010246276855
1760898517978863400,3.83086328125,-0.00362396240234375,0.05732846260070801,0.032771408557891846
1760898517988551700,3.8405517578125,0.05210685729980469,0.039339303970336914,0.02644491195678711
1760898517998240000,3.850239990234375,0.0834646224975586,0.049062252044677734,0.02075284719467163
1760898518007928300,3.85992822265625,0.08151817321777344,0.014998197555541992,-0.00349503755569458
1760898518017616600,3.86961669921875,0.042168617248535156,-0.015502095222473145,-0.03180277347564697
1760898518027305000,3.879304931640625,0.013068199157714844,-0.0046242475509643555,-0.0641026496887207
1760898518036993500,3.88899365234375,-0.02476787567138672,-0.014234423637390137,-0.07232007384300232
1760898518046681900,3.898681884765625,-0.043018341064453125,0.0036416053771972656,-0.05239245295524597
1760898518056370200,3.9083701171875,-0.07502174377441406,-0.01699542999267578,-0.023157775402069092
1760898518066058500,3.91805859375,-0.059398651123046875,-0.023505568504333496,0.0010963678359985352
1760898518075746800,3.927746826171875,-0.04870796203613281,-0.025536060333251953,0.0016293525695800781
1760898518085435100,3.93743505859375,0.0041828155517578125,-0.02304232120513916,-0.0024684667587280273
1760898518095123700,3.947123779296875,-0.004971504211425781,-0.03010392189025879,0.01229587197303772
1760898518104812000,3.95681201171875,0.009502410888671875,-0.03197801113128662,0.045805275440216064
1760898518114500400,3.966500244140625,0.0001392364501953125,-0.014628052711486816,0.027371078729629517
1760898518124188700,3.976188720703125,0.014400482177734375,-0.02062523365020752,0.013904958963394165
1760898518133877000,3.985876953125,-0.009256362915039062,-0.030893445014953613,-0.0089607834815979
1760898518143565300,3.9955654296875,-0.013702392578125,-0.012550950050354004,-0.0036047399044036865
1760898518153254000,4.00525390625,-0.022783279418945312,-0.017975211143493652,0.020378172397613525
1760898518162942200,4.014942138671875,-0.01762866973876953,-0.018290996551513672,0.0014561116695404053
1760898518172630500,4.024630615234375,-0.06436729431152344,-0.027564644813537598,-0.0033586621284484863
1760898518182318800,4.03431884765625,-0.06799888610839844,-0.008227109909057617,-0.012897729873657227
1760898518192007200,4.044007080078125,-0.04799938201904297,-0.012956976890563965,-0.03665241599082947
1760898518201695700,4.05369580078125,-0.03765296936035156,-0.03229320049285889,-0.022704720497131348
1760898518211384000,4.063384033203125,-0.01324462890625,-0.033272743225097656,-0.018643170595169067
1760898518221072400,4.073072265625,0.02966594696044922,-0.02080512046813965,-0.01452067494392395
1760898518230760700,4.0827607421875,0.015409469604492188,-0.022901415824890137,0.03214341402053833
1760898518240449000,4.092448974609375,0.0107574462890625,-0.03908061981201172,0.04599696397781372
1760898518250137600,4.1021376953125,0.01080322265625,-0.007585048675537109,0.032164156436920166
1760898518259826000,4.111825927734375,-0.00804901123046875,-0.0044977664947509766,0.019099444150924683
1760898518269514200,4.12151416015625,-0.017251014709472656,-0.01981973648071289,0.0018570423126220703
1760898518279202600,4.13120263671875,-0.05933952331542969,-0.029255032539367676,-0.015597403049468994
1760898518288891100,4.14089111328125,-0.08678150177001953,-0.04162144660949707,-0.03833702206611633
1760898518298579500,4.150579345703125,-0.09984493255615234,-0.02381587028503418,-0.03310513496398926
1760898518308267800,4.160267822265625,-0.07046890258789062,0.008956193923950195,-0.014212876558303833
1760898518317956000,4.1699560546875,-0.013353347778320312,0.013184785842895508,-0.033765822649002075
1760898518327644400,4.17964453125,0.024036407470703125,0.007687568664550781,-0.03446444869041443
1760898518337333000,4.1893330078125,0.03264808654785156,0.025215864181518555,0.007162749767303467
1760898518347021300,4.199021240234375,0.01297760009765625,0.032314300537109375,0.005748540163040161
1760898518356709600,4.208709716796875,-0.025084495544433594,0.029042601585388184,-0.0002295076847076416
1760898518366398000,4.21839794921875,-0.020033836364746094,0.02017688751220703,-0.006132572889328003
1760898518376086500,4.22808642578125,-0.024335861206054688,0.010419964790344238,-0.012119859457015991
1760898518385774800,4.23777490234375,-0.02844524383544922,-0.023606300354003906,-0.013316035270690918
1760898518395463200,4.247463134765625,-0.008874893188476562,-0.04359996318817139,-0.009746730327606201
1760898518405151500,4.2571513671875,-0.0036458969116210938,-0.04532730579376221,0.027000457048416138
1760898518414840000,4.266840087890625,0.03920459747314453,-0.04792213439941406,0.021887511014938354
1760898518424528400,4.2765283203125,0.03427600860595703,-0.04139101505279541,0.06020447611808777
1760898518434216700,4.286216796875,-0.01768016815185547,-0.0255509614944458,0.07536002993583679
1760898518443905000,4.295905029296875,-0.045345306396484375,-0.033032894134521484,0.039361149072647095
1760898518453593600,4.305593505859375,-0.02557659149169922,-0.021083712577819824,-0.014369219541549683
1760898518463282000,4.315281982421875,-0.048521995544433594,-0.022957563400268555,-0.03493550419807434
1760898518472970200,4.32497021484375,-0.024049758911132812,-0.024210572242736816,-0.042122989892959595
1760898518482658800,4.334658935546875,-0.009426116943359375,-0.0013464689254760742,-0.03127479553222656
1760898518492347100,4.34434716796875,0.004917144775390625,0.03567993640899658,0.0025434792041778564
1760898518502035500,4.354035400390625,0.051918983459472656,0.05345308780670166,0.012601017951965332
1760898518511723800,4.363723876953125,0.06516456604003906,0.023826241493225098,0.027998268604278564
1760898518521412400,4.373412353515625,0.040587425231933594,0.027260541915893555,-0.013240844011306763
1760898518531100700,4.3831005859375,0.01651477813720703,0.011365771293640137,-0.05919402837753296
1760898518540789000,4.3927890625,-0.030649185180664062,0.0003399848937988281,-0.09074762463569641
1760898518550477600,4.4024775390625,-0.10052967071533203,0.008197188377380371,-0.07020694017410278
1760898518560166000,4.412165771484375,-0.0750894546508789,0.020386576652526855,-0.01242917776107788
1760898518569854200,4.421854248046875,-0.04067230224609375,-0.005052924156188965,-0.007817178964614868
1760898518579542800,4.431542724609375,-0.08219242095947266,-0.020078420639038086,0.020103871822357178
1760898518589231000,4.441231201171875,-0.06665325164794922,-0.02015233039855957,0.033963292837142944
1760898518598919400,4.45091943359375,-0.042026519775390625,-0.04327893257141113,0.05705595016479492
1760898518608608000,4.46060791015625,0.010413169860839844,-0.05648386478424072,0.06079632043838501
1760898518618296300,4.47029638671875,0.05259513854980469,-0.05568563938140869,0.06479915976524353
1760898518627984600,4.479984619140625,0.07997512817382812,-0.0412142276763916,0.04605209827423096
1760898518637673200,4.489673095703125,0.09284496307373047,-0.0604480504989624,-0.005218446254730225
1760898518647361500,4.499361572265625,0.07262706756591797,-0.05612790584564209,-0.02797415852546692
1760898518657049900,4.5090498046875,0.03863334655761719,-0.009521484375,0.001285463571548462
1760898518666738400,4.518738525390625,-0.0042572021484375,0.027095317840576172,0.035292983055114746
1760898518676426800,4.5284267578125,-0.008821487426757812,0.05858957767486572,0.026585370302200317
1760898518686115000,4.538114990234375,-0.01332855224609375,0.042699575424194336,-0.015069007873535156
1760898518695803600,4.5478037109375,-0.06486225128173828,0.041742563247680664,-0.047252118587493896
1760898518705492000,4.557491943359375,-0.09679031372070312,0.03677058219909668,-0.06981205940246582
1760898518715180300,4.56718017578125,-0.08583927154541016,0.05094254016876221,-0.08306834101676941
1760898518724868900,4.576868896484375,-0.03738880157470703,0.04114401340484619,-0.0962781310081482
1760898518734557200,4.58655712890625,0.033890724182128906,0.03072071075439453,-0.07634183764457703
1760898518744245500,4.59624560546875,0.06640434265136719,0.019796013832092285,-0.061005622148513794
1760898518753934000,4.60593408203125,0.05130577087402344,0.004228830337524414,-0.007695794105529785
1760898518763622400,4.615622314453125,0.008183479309082031,0.017377376556396484,0.01673230528831482
1760898518773310700,4.625310791015625,-0.001300811767578125,0.021111130714416504,-0.011207491159439087
1760898518782999300,4.634999267578125,-0.005934715270996094,0.006164431571960449,-0.0013132989406585693
1760898518792687600,4.6446875,-0.019968032836914062,0.020241975784301758,0.017677783966064453
1760898518802376200,4.654376220703125,-0.047966957092285156,-0.0027846097946166992,0.04053741693496704
1760898518812064500,4.664064453125,-0.06149768829345703,-0.014984726905822754,0.010766953229904175
1760898518821752800,4.6737529296875,-0.041962623596191406,-0.02627420425415039,0.0004661679267883301
1760898518831441400,4.68344140625,-0.03221702575683594,-0.04171454906463623,0.018609225749969482
1760898518841129700,4.693129638671875,0.015081405639648438,-0.047939181327819824,0.04104241728782654
1760898518850818000,4.702818115234375,0.05233287811279297,-0.02226877212524414,0.04902970790863037
1760898518860506600,4.712506591796875,0.08913516998291016,-0.022040486335754395,0.03395158052444458
1760898518870195000,4.72219482421875,0.07842731475830078,-0.027996182441711426,0.015099287033081055
1760898518879883500,4.731883544921875,0.05860710144042969,-0.04439270496368408,-0.002773493528366089
1760898518889571800,4.74157177734375,-0.012607574462890625,-0.03744065761566162,-0.005776911973953247
1760898518899260200,4.75126025390625,-0.04971885681152344,-0.025790095329284668,0.019747138023376465
1760898518908948700,4.76094873046875,-0.09096240997314453,-0.0045816898345947266,-0.011624902486801147
1760898518918637000,4.770636962890625,-0.08919525146484375,0.00708925724029541,-0.03306254744529724
1760898518928325600,4.78032568359375,-0.0592193603515625,-0.02825009822845459,-0.059575170278549194
1760898518938014000,4.790013916015625,-0.04859638214111328,-0.03428995609283447,-0.053446441888809204
1760898518947702300,4.799702392578125,-0.03356647491455078,-0.011071443557739258,-0.014524906873703003
1760898518957390800,4.809390869140625,0.028189659118652344,0.002925872802734375,0.009712696075439453
1760898518967079200,4.8190791015625,0.05594921112060547,0.0169217586517334,-0.00422939658164978
1760898518976767700,4.828767822265625,0.059706687927246094,0.04489409923553467,0.038479775190353394
1760898518986456000,4.8384560546875,0.03983592987060547,0.07260048389434814,0.02419695258140564
1760898518996144600,4.84814453125,0.04851055145263672,0.05758941173553467,0.010311812162399292
1760898519005833000,4.8578330078125,0.03345012664794922,0.024350523948669434,-0.026546508073806763
1760898519015521300,4.867521240234375,0.004357337951660156,-0.0025815963745117188,-0.015241920948028564
1760898519025209900,4.8772099609375,-0.04805183410644531,-0.027090072631835938,0.0006685853004455566
1760898519034898200,4.886898193359375,-0.09524822235107422,-0.03452575206756592,0.030959367752075195
1760898519044586800,4.896586669921875,-0.06675434112548828,-0.04847681522369385,0.023628205060958862
1760898519054275000,4.906275146484375,-0.10494804382324219,-0.026502132415771484,0.03940880298614502
1760898519063963600,4.915963623046875,-0.06267261505126953,0.024835824966430664,0.06405746936798096
1760898519073652000,4.92565185546875,0.011857032775878906,0.04732060432434082,0.03582724928855896
1760898519083340300,4.93534033203125,0.052329063415527344,0.03567767143249512,-0.010804086923599243
1760898519093028900,4.94502880859375,0.07828044891357422,0.06450068950653076,0.0047533512115478516
1760898519102717200,4.95471728515625,0.07591438293457031,0.06194412708282471,-0.003542780876159668
1760898519112405800,4.96440576171875,0.04568767547607422,0.0192413330078125,-0.06367498636245728
1760898519122094000,4.974093994140625,-0.0025577545166015625,-0.0202409029006958,-0.05737507343292236
1760898519131782700,4.98378271484375,-0.01678752899169922,-0.023600339889526367,-0.08404982089996338
1760898519141471000,4.993470947265625,-0.016386985778808594,-0.029194235801696777,-0.09117236733436584
1760898519151159600,5.00315966796875,0.0030965805053710938,-0.04168593883514404,-0.0600321888923645
1760898519160848000,5.012847900390625,0.0225067138671875,-0.041904330253601074,-0.05268436670303345
1760898519170536400,5.022536376953125,-0.005284309387207031,-0.03406393527984619,-0.05029222369194031
1760898519180224800,5.032224853515625,-0.04195117950439453,-0.031493186950683594,-0.03410661220550537
1760898519189913300,5.041913330078125,-0.06395626068115234,-0.018975138664245605,-0.01821961998939514
1760898519199601700,5.0516015625,-0.0528106689453125,-0.024234890937805176,0.039740920066833496
1760898519209290000,5.0612900390625,-0.027956008911132812,-0.032173991203308105,0.04437413811683655
1760898519218978600,5.070978515625,-0.01792621612548828,-0.009343862533569336,0.048531025648117065
1760898519228667000,5.0806669921875,0.0010099411010742188,-0.012496113777160645,0.06195691227912903
1760898519238355500,5.09035546875,0.014641761779785156,-0.00872492790222168,0.061125755310058594
1760898519248043800,5.100043701171875,0.037278175354003906,0.019864439964294434,0.06515756249427795
1760898519257732400,5.109732421875,0.059539794921875,0.010424613952636719,0.03589943051338196
1760898519267420700,5.119420654296875,0.04389381408691406,-0.004135251045227051,-0.0030622780323028564
1760898519277109200,5.129109130859375,0.03337669372558594,-0.005340456962585449,-0.018569350242614746
1760898519286797600,5.138797607421875,-0.028588294982910156,-0.031055927276611328,-0.0576319694519043
1760898519296486100,5.148486083984375,-0.02820587158203125,-0.0011256933212280273,-0.03910425305366516
1760898519306174500,5.158174560546875,-0.004119873046875,0.04081463813781738,0.012567490339279175
1760898519315863000,5.167863037109375,0.010340690612792969,0.019270896911621094,-0.03034171462059021
1760898519325551400,5.17755126953125,0.0058135986328125,0.025512218475341797,-0.010748535394668579
1760898519335240000,5.187239990234375,-0.017457008361816406,0.021892428398132324,-0.028206706047058105
1760898519344928300,5.19692822265625,-0.012147903442382812,0.04197120666503906,-0.021149128675460815
1760898519354616800,5.206616943359375,-0.0022535324096679688,0.01487874984741211,-0.028198838233947754
1760898519364305200,5.21630517578125,-0.011384963989257812,0.007520318031311035,-0.016775786876678467
1760898519373993700,5.22599365234375,-0.01570606231689453,0.014860868453979492,-0.019902288913726807
1760898519383682300,5.235682373046875,-0.005862236022949219,-0.005692601203918457,-0.03791779279708862
1760898519393370600,5.24537060546875,-0.0009565353393554688,-0.01555478572845459,-0.04744371771812439
1760898519403059200,5.25505908203125,-0.005665779113769531,-0.01468205451965332,-0.010392576456069946
1760898519412747500,5.26474755859375,0.013081550598144531,0.006139039993286133,0.016728252172470093
1760898519422436000,5.27443603515625,0.022027015686035156,0.008352279663085938,0.048231273889541626
1760898519432124400,5.28412451171875,0.04958915710449219,0.010953307151794434,0.06047353148460388
1760898519441813000,5.29381298828125,0.043732643127441406,-0.0006361007690429688,0.05893537402153015
1760898519451501300,5.303501220703125,0.019174575805664062,0.0018389225006103516,0.01053553819656372
1760898519461190000,5.31318994140625,-0.019034385681152344,-0.019710659980773926,-0.0182342529296875
1760898519470878200,5.322878173828125,-0.000003814697265625,-0.03251087665557861,-0.05123052000999451
1760898519480566800,5.33256689453125,0.023558616638183594,-0.055757761001586914,-0.05980706214904785
1760898519490255000,5.342255126953125,0.03752899169921875,-0.05220746994018555,-0.03011062741279602
1760898519499943700,5.351943603515625,0.08444023132324219,-0.05066525936126709,0.004195481538772583
1760898519509632300,5.36163232421875,0.0648355484008789,-0.059814453125,0.01475602388381958
1760898519519320600,5.371320556640625,-0.0108489990234375,-0.055359721183776855,-0.0072762370109558105
1760898519529009200,5.381009033203125,-0.019449234008789062,-0.03659963607788086,-0.018837302923202515
1760898519538697500,5.390697509765625,-0.06569194793701172,-0.04520368576049805,-0.021054744720458984
1760898519548386000,5.400385986328125,-0.11134052276611328,-0.05204594135284424,0.03717133402824402
1760898519558074400,5.410074462890625,-0.06229114532470703,-0.005514979362487793,0.06119924783706665
1760898519567763000,5.419762939453125,-0.05182075500488281,0.03644216060638428,0.08471301198005676
1760898519577451300,5.429451171875,0.0007781982421875,0.01226186752319336,0.10293138027191162
1760898519587139800,5.439139892578125,0.014849662780761719,-0.011529922485351562,0.08335679769515991
1760898519596828200,5.448828125,0.042842864990234375,-0.03068256378173828,0.0975329577922821
1760898519606516700,5.458516845703125,0.08928775787353516,-0.06925666332244873,0.07442259788513184
1760898519616205300,5.468205322265625,0.08803367614746094,-0.10832273960113525,0.04733210802078247
1760898519625893600,5.4778935546875,0.08691596984863281,-0.12433362007141113,0.04969319701194763
1760898519635582200,5.487582275390625,0.08120441436767578,-0.11745691299438477,0.029166430234909058
1760898519645270500,5.4972705078125,0.08036613464355469,-0.13490140438079834,0.009420812129974365
1760898519654959000,5.506958984375,0.06546401977539062,-0.157201886177063,-0.00006133317947387695
1760898519664647400,5.5166474609375,0.013134956359863281,-0.1272214651107788,-0.06550702452659607
1760898519674336000,5.5263359375,0.0040073394775390625,-0.07406723499298096,-0.0919804573059082
1760898519684024600,5.536024658203125,0.004427909851074219,-0.01707756519317627,-0.10809525847434998
1760898519693713000,5.545712890625,0.051909446716308594,0.05284583568572998,-0.10901659727096558
1760898519703401500,5.5554013671875,0.013932228088378906,0.1400620937347412,-0.09527724981307983
1760898519713089800,5.56508984375,-0.037506103515625,0.1550912857055664,-0.10507866740226746
1760898519722778400,5.5747783203125,-0.11159515380859375,0.23126018047332764,-0.14874953031539917
1760898519732467000,5.584467041015625,-0.1891489028930664,0.25506341457366943,-0.1659100353717804
1760898519742155300,5.5941552734375,-0.2231159210205078,0.29358983039855957,-0.11898177862167358
1760898519751843800,5.60384375,-0.17187118530273438,0.31811702251434326,-0.050526708364486694
1760898519761532200,5.6135322265625,-0.03675365447998047,0.3469114303588867,-0.011774718761444092
1760898519771220700,5.623220703125,0.08205890655517578,0.3183969259262085,-0.021100103855133057
1760898519780909000,5.632908935546875,0.1000223159790039,0.24844980239868164,-0.03068983554840088
1760898519790597600,5.64259765625,0.07044792175292969,0.22338104248046875,-0.007517337799072266
1760898519800286200,5.6522861328125,0.03165245056152344,0.18217253684997559,-0.004120528697967529
1760898519809974500,5.661974609375,-0.011597633361816406,0.10224461555480957,0.012544095516204834
1760898519819663000,5.6716630859375,-0.0262451171875,0.05000770092010498,0.03699812293052673
1760898519829351700,5.6813515625,-0.012717247009277344,-0.03640341758728027,0.031123638153076172
1760898519839040000,5.6910400390625,-0.042016029357910156,-0.08146023750305176,0.019051432609558105
1760898519848728600,5.700728515625,-0.08043956756591797,-0.14748680591583252,0.02981555461883545
1760898519858417000,5.7104169921875,-0.024147987365722656,-0.21185600757598877,0.04490715265274048
1760898519868105500,5.72010546875,0.03605937957763672,-0.27593815326690674,0.045367151498794556
1760898519877793800,5.729793701171875,0.0672922134399414,-0.3078029751777649,0.03655323386192322
1760898519887482400,5.739482421875,0.07949447631835938,-0.3181876540184021,0.052682310342788696
1760898519897171000,5.7491708984375,0.12007808685302734,-0.284379780292511,0.06546133756637573
1760898519906859300,5.758859375,0.10387325286865234,-0.26851940155029297,0.04223397374153137
1760898519916547800,5.7685478515625,0.11177349090576172,-0.22303688526153564,0.045163124799728394
1760898519926236400,5.778236328125,0.08213996887207031,-0.1573798656463623,0.03144589066505432
1760898519935924700,5.7879248046875,0.03909873962402344,-0.1090923547744751,0.005428940057754517
1760898519945613300,5.79761328125,-0.026609420776367188,-0.07238376140594482,-0.005129009485244751
1760898519955302000,5.807302001953125,-0.03934955596923828,-0.008963942527770996,-0.03386664390563965
1760898519964990200,5.816990234375,-0.02831554412841797,0.02517414093017578,-0.06743013858795166
1760898519974678800,5.8266787109375,-0.05046558380126953,0.059433579444885254,-0.07279801368713379
1760898519984367000,5.8363671875,-0.03947162628173828,0.13202261924743652,-0.07797974348068237
1760898519994055700,5.8460556640625,-0.0005960464477539062,0.15300297737121582,-0.06438189744949341
1760898520003744300,5.855744140625,0.01862335205078125,0.1846332550048828,-0.06110420823097229
1760898520013432600,5.8654326171875,-0.01447296142578125,0.16118943691253662,-0.05395469069480896
1760898520023121200,5.87512109375,-0.07552051544189453,0.17791664600372314,-0.038116127252578735
1760898520032809500,5.8848095703125,-0.08393383026123047,0.18627548217773438,-0.023422837257385254
1760898520042498000,5.894498046875,-0.04048442840576172,0.14795970916748047,-0.0050203800201416016
1760898520052186600,5.9041865234375,0.0022859573364257812,0.10072267055511475,-0.011123448610305786
1760898520061875000,5.913875,-0.0026760101318359375,0.039797306060791016,-0.0027183890342712402
1760898520071563500,5.9235634765625,0.016040802001953125,-0.0019828081130981445,-0.007844358682632446
1760898520081252000,5.933252197265625,0.05340862274169922,-0.034902215003967285,0.0020264387130737305
1760898520090940400,5.9429404296875,0.07151603698730469,-0.06873416900634766,-0.011389583349227905
1760898520100629000,5.95262890625,0.0706777572631836,-0.09874939918518066,-0.009974479675292969
1760898520110317600,5.962317626953125,0.0699930191040039,-0.10113298892974854,-0.012943476438522339
1760898520120006000,5.972005859375,0.022332191467285156,-0.11331236362457275,0.007330983877182007
1760898520129694500,5.981694580078125,-0.0245513916015625,-0.09681355953216553,0.008056938648223877
1760898520139382800,5.9913828125,-0.061283111572265625,-0.06142544746398926,0.03689268231391907
1760898520149071400,6.0010712890625,-0.04567432403564453,-0.031009316444396973,0.036848366260528564
1760898520158760000,6.010760009765625,0.0026149749755859375,-0.015230298042297363,0.06508737802505493
1760898520168448300,6.0204482421875,0.012402534484863281,-0.02760469913482666,0.055306583642959595
1760898520178136800,6.03013671875,-0.0016241073608398438,-0.03896200656890869,0.050672054290771484
1760898520187825400,6.039825439453125,0.00325775146484375,-0.030373573303222656,0.04658699035644531
1760898520197513700,6.049513671875,0.012681961059570312,-0.04015934467315674,0.03317686915397644
1760898520207202300,6.059202392578125,0.021915435791015625,-0.02118539810180664,0.028982877731323242
1760898520216891000,6.068890869140625,0.031015396118164062,-0.011922359466552734,0.0006991922855377197
1760898520226579200,6.0785791015625,0.03530693054199219,-0.007738232612609863,-0.032304197549819946
1760898520236267800,6.088267822265625,0.03017139434814453,0.038371920585632324,-0.017862439155578613
1760898520245956400,6.097956298828125,0.03928184509277344,0.06451570987701416,-0.012833356857299805
1760898520255644700,6.107644775390625,0.029433250427246094,0.09007656574249268,0.0016503334045410156
1760898520265333200,6.117333251953125,-0.003780364990234375,0.08695483207702637,-0.012263059616088867
1760898520275021800,6.127021728515625,-0.027069091796875,0.055872321128845215,-0.04923102259635925
1760898520284710100,6.136710205078125,-0.0641326904296875,0.03976607322692871,-0.06675916910171509
1760898520294398700,6.146398681640625,-0.05823802947998047,0.03816378116607666,-0.05118325352668762
1760898520304087300,6.15608740234375,-0.02890777587890625,0.00847470760345459,-0.07881873846054077
1760898520313775600,6.165775634765625,-0.0283050537109375,0.01705777645111084,-0.07816243171691895
1760898520323464200,6.175464111328125,0.014616012573242188,0.02091360092163086,-0.06791055202484131
1760898520333152800,6.18515283203125,0.05207347869873047,0.010923504829406738,-0.06263276934623718
1760898520342841000,6.194841064453125,0.03709888458251953,0.011074304580688477,-0.030212104320526123
1760898520352529700,6.20452978515625,0.01751708984375,0.01716744899749756,0.0010197758674621582
1760898520362218200,6.21421826171875,-0.001941680908203125,0.05757033824920654,0.012810051441192627
1760898520371906600,6.223906494140625,0.007046699523925781,0.06997156143188477,0.01935756206512451
1760898520381595100,6.23359521484375,0.0063953399658203125,0.012245774269104004,0.034801602363586426
1760898520391283700,6.24328369140625,-0.017783164978027344,0.0026366710662841797,0.031114190816879272
1760898520400972300,6.25297216796875,0.0008678436279296875,-0.0310438871383667,0.061188459396362305
1760898520410660600,6.26266064453125,0.024102210998535156,-0.046941161155700684,0.035244882106781006
1760898520420349200,6.27234912109375,0.04247093200683594,-0.08332538604736328,0.04369509220123291
1760898520430037800,6.282037841796875,0.027828216552734375,-0.10702300071716309,0.02029511332511902
1760898520439726000,6.29172607421875,0.018408775329589844,-0.10894274711608887,0.0073461830615997314
1760898520449414700,6.30141455078125,0.03289985656738281,-0.1407405138015747,-0.009846806526184082
1760898520459103200,6.311103271484375,0.02367115020751953,-0.13018310070037842,-0.011983633041381836
1760898520468791600,6.32079150390625,-0.02788543701171875,-0.11884212493896484,0.023485153913497925
1760898520478480100,6.330480224609375,-0.02232646942138672,-0.08241569995880127,0.043518632650375366
1760898520488168700,6.340168701171875,0.0064640045166015625,-0.012045979499816895,0.04386112093925476
1760898520497857000,6.34985693359375,0.044002532958984375,0.049095749855041504,0.06281033158302307
1760898520507545600,6.359545654296875,0.066680908203125,0.08656609058380127,0.057798802852630615
1760898520517234200,6.369234130859375,0.0701131820678711,0.11901211738586426,0.0340612530708313
1760898520526922500,6.378922607421875,0.05466175079345703,0.11323165893554688,0.015682101249694824
1760898520536611000,6.388611083984375,0.03009033203125,0.12140822410583496,-0.030627667903900146
1760898520546299600,6.398299560546875,-0.01757526397705078,0.07755768299102783,-0.08105042576789856
1760898520555988200,6.40798828125,-0.09263324737548828,0.05303049087524414,-0.12165886163711548
1760898520565676500,6.417676513671875,-0.1004648208618164,0.05669820308685303,-0.1482829451560974
1760898520575365000,6.427365234375,-0.09393024444580078,0.02668297290802002,-0.1467948853969574
1760898520585053700,6.4370537109375,-0.040284156799316406,0.02908039093017578,-0.0845763087272644
1760898520594742000,6.446741943359375,0.036141395568847656,0.011472225189208984,-0.022908449172973633
1760898520604430600,6.4564306640625,0.05964469909667969,0.03077566623687744,0.010322749614715576
1760898520614119200,6.466119140625,0.07815170288085938,0.006492733955383301,0.04851683974266052
1760898520623807500,6.475807373046875,0.08231735229492188,-0.022776126861572266,0.048898160457611084
1760898520633496000,6.48549609375,0.05352306365966797,-0.023804903030395508,0.10160672664642334
1760898520643184600,6.4951845703125,0.07236194610595703,-0.01623213291168213,0.14483818411827087
1760898520652873200,6.504873291015625,0.08161163330078125,0.00416874885559082,0.131903737783432
1760898520662561500,6.5145615234375,0.05796051025390625,-0.01490771770477295,0.05887258052825928
1760898520672250000,6.52425,0.0725698471069336,-0.05406320095062256,-0.021717846393585205
1760898520681938700,6.533938720703125,0.06355571746826172,-0.11236286163330078,-0.053632646799087524
1760898520691627000,6.543626953125,-0.03947925567626953,-0.12224948406219482,-0.009320467710494995
1760898520701315600,6.553315673828125,-0.08923149108886719,-0.10244226455688477,0.02544841170310974
1760898520711004200,6.563004150390625,-0.08659839630126953,-0.0862652063369751,-0.010686486959457397
1760898520720692700,6.572692626953125,-0.03707313537597656,-0.06012105941772461,-0.017670392990112305
1760898520730381000,6.582381103515625,0.030417442321777344,-0.048281311988830566,-0.005593687295913696
1760898520740069600,6.592069580078125,0.04504108428955078,-0.022515177726745605,0.0011993646621704102
1760898520749758200,6.60175830078125,-0.0018033981323242188,-0.015447139739990234,-0.011800050735473633
1760898520759446800,6.61144677734375,-0.0009527206420898438,-0.0071446895599365234,-0.02647542953491211
1760898520769135000,6.621135009765625,-0.08981132507324219,-0.006027340888977051,-0.015320152044296265
1760898520778823700,6.63082373046875,-0.15414714813232422,0.04081559181213379,-0.0056750476360321045
1760898520788512300,6.64051220703125,-0.11899948120117188,0.05665743350982666,-0.024783343076705933
1760898520798200600,6.65020068359375,-0.06581878662109375,0.06440126895904541,-0.05430784821510315
1760898520807889200,6.65988916015625,-0.008847236633300781,0.05833768844604492,-0.04227510094642639
1760898520817577700,6.66957763671875,0.0236663818359375,0.057064056396484375,-0.02150958776473999
1760898520827266300,6.679266357421875,-0.038519859313964844,0.03721141815185547,-0.033787816762924194
1760898520836954600,6.68895458984375,-0.06676006317138672,0.0554429292678833,-0.03584885597229004
1760898520846643200,6.698643310546875,-0.014444351196289062,0.06798148155212402,-0.018355369567871094
1760898520856331800,6.708331787109375,0.008970260620117188,0.05542325973510742,-0.01986396312713623
1760898520866020400,6.718020263671875,0.06985282897949219,0.01336359977722168,-0.006759732961654663
1760898520875708700,6.727708740234375,0.05454444885253906,0.013328194618225098,0.04977640509605408
1760898520885397200,6.737397216796875,0.030147552490234375,0.0031986236572265625,0.06887301802635193
1760898520895085800,6.7470859375,0.0014982223510742188,-0.016623377799987793,0.06478413939476013
1760898520904774100,6.756774169921875,0.0016069412231445312,-0.05527091026306152,0.04683765769004822
1760898520914462700,6.766462646484375,-0.02647876739501953,-0.07008123397827148,0.015394985675811768
1760898520924151300,6.7761513671875,-0.0022306442260742188,-0.08050096035003662,0.0028294622898101807
1760898520933840000,6.78583984375,0.03116321563720703,-0.07741832733154297,-0.00529104471206665
1760898520943528400,6.795528564453125,0.04055023193359375,-0.074942946434021,-0.008396029472351074
1760898520953216800,6.805216796875,0.0686330795288086,-0.05401444435119629,-0.024826526641845703
1760898520962905300,6.8149052734375,0.06331729888916016,-0.04294300079345703,-0.03602492809295654
1760898520972594000,6.824593994140625,0.06743621826171875,-0.012773275375366211,-0.028361499309539795
1760898520982282500,6.834282470703125,-0.03693389892578125,0.032376646995544434,-0.01694786548614502
1760898520991970800,6.843970703125,-0.06924724578857422,0.059882283210754395,-0.02078363299369812
1760898521001659400,6.853659423828125,-0.08718013763427734,0.07473695278167725,-0.025348246097564697
1760898521011348000,6.863347900390625,-0.1003408432006836,0.0862128734588623,-0.025530904531478882
1760898521021036500,6.87303662109375,-0.08047008514404297,0.09838616847991943,-0.016550391912460327
1760898521030724900,6.882724853515625,-0.013804435729980469,0.09587907791137695,-0.02689075469970703
1760898521040413400,6.892413330078125,0.02835369110107422,0.05024838447570801,-0.009058237075805664
1760898521050102000,6.90210205078125,0.051113128662109375,0.013983964920043945,-0.01980191469192505
1760898521059790600,6.91179052734375,0.026511192321777344,0.010695815086364746,0.012343108654022217
1760898521069479000,6.92147900390625,0.021200180053710938,-0.0259249210357666,-0.0026886463165283203
1760898521079167500,6.93116748046875,0.020780563354492188,-0.03436911106109619,-0.026707589626312256
1760898521088856000,6.94085595703125,0.03456592559814453,-0.06675124168395996,-0.007833808660507202
1760898521098544600,6.950544677734375,0.029329299926757812,-0.05162763595581055,-0.00865548849105835
1760898521108233000,6.96023291015625,0.00058746337890625,-0.05510592460632324,0.013735204935073853
1760898521117921500,6.969921630859375,0.0193634033203125,-0.03957569599151611,0.03579670190811157
1760898521127610000,6.979610107421875,0.09900569915771484,-0.02428305149078369,0.024332165718078613
1760898521137298700,6.989298583984375,0.09722042083740234,0.005672812461853027,0.031167954206466675
1760898521146987000,6.998987060546875,-0.03192901611328125,-0.009683609008789062,0.09883043169975281
1760898521156675600,7.008675537109375,-0.1169576644897461,0.03415513038635254,0.09994426369667053
1760898521166364200,7.0183642578125,-0.11138534545898438,0.05048632621765137,0.030747413635253906
1760898521176052700,7.028052734375,-0.04942512512207031,0.024184346199035645,-0.013845384120941162
1760898521185741300,7.0377412109375,0.007039070129394531,0.010841608047485352,-0.034114301204681396
1760898521195429600,7.0474296875,0.053508758544921875,-0.03771567344665527,-0.08169740438461304
1760898521205118200,7.0571181640625,0.06664562225341797,-0.02229297161102295,-0.1041988730430603
1760898521214806800,7.066806884765625,0.037575721740722656,-0.04736626148223877,-0.09747785329818726
1760898521224495400,7.076495361328125,0.018720626831054688,-0.017824888229370117,-0.07603740692138672
1760898521234183700,7.08618359375,0.038082122802734375,-0.014015674591064453,-0.03126075863838196
1760898521243872300,7.095872314453125,0.02437877655029297,0.011988282203674316,0.012662649154663086
1760898521253560800,7.105560791015625,0.010938644409179688,0.03249228000640869,0.037813931703567505
1760898521263249400,7.11524951171875,0.02588939666748047,0.024753093719482422,0.02102181315422058
1760898521272938000,7.12493798828125,0.016897201538085938,0.022989511489868164,0.0184803307056427
1760898521282626300,7.134626220703125,-0.006379127502441406,-0.014104723930358887,0.033681392669677734
1760898521292315000,7.14431494140625,-0.07202911376953125,0.01816868782043457,0.02883821725845337
1760898521302003500,7.15400341796875,-0.08522224426269531,0.02913188934326172,-0.019035428762435913
1760898521311692000,7.163692138671875,-0.04200458526611328,0.05609261989593506,-0.03431078791618347
1760898521321380400,7.17338037109375,0.005146980285644531,0.05493175983428955,-0.02691650390625
1760898521331069000,7.18306884765625,0.046875,0.058128952980041504,-0.02466505765914917
1760898521340757500,7.192757568359375,0.05982208251953125,0.08374452590942383,0.0014952123165130615
1760898521350446000,7.202446044921875,0.03509807586669922,0.07929933071136475,-0.019083082675933838
1760898521360134700,7.212134765625,-0.007852554321289062,0.04059159755706787,-0.010230392217636108
1760898521369823000,7.221822998046875,-0.03572845458984375,0.005626797676086426,-0.02483716607093811
1760898521379511600,7.231511474609375,-0.02988147735595703,-0.04010748863220215,-0.03992331027984619
1760898521389200100,7.2412001953125,-0.03796100616455078,-0.07278478145599365,-0.026695579290390015
1760898521398888700,7.250888671875,-0.012783050537109375,-0.08744502067565918,-0.017520934343338013
1760898521408577300,7.260577392578125,0.016663551330566406,-0.09252917766571045,0.0020027756690979004
1760898521418265600,7.270265625,-0.020514488220214844,-0.12423694133758545,0.049966961145401
1760898521427954200,7.2799541015625,-0.05744743347167969,-0.10604166984558105,0.060031354427337646
1760898521437642800,7.289642822265625,-0.0046596527099609375,-0.0814903974533081,0.07471963763237
1760898521447331300,7.299331298828125,0.0894460678100586,-0.02338087558746338,0.060779690742492676
1760898521457020000,7.30902001953125,0.11605262756347656,0.005853533744812012,0.08465898036956787
1760898521466708200,7.318708251953125,0.12337017059326172,0.01116323471069336,0.05659449100494385
1760898521476396800,7.328396728515625,0.059978485107421875,0.025774717330932617,0.033809274435043335
1760898521486085400,7.33808544921875,0.0023565292358398438,0.026014328002929688,-0.01700529456138611
1760898521495774000,7.34777392578125,-0.058979034423828125,0.012018918991088867,-0.03919076919555664
1760898521505462500,7.357462646484375,-0.09100723266601562,0.012151360511779785,-0.08030077815055847
1760898521515151000,7.367151123046875,-0.1365528106689453,0.007236003875732422,-0.06000232696533203
1760898521524839400,7.37683935546875,-0.11533641815185547,0.0016030073165893555,-0.04930564761161804
1760898521534528000,7.386528076171875,-0.05189704895019531,0.03211212158203125,-0.061567217111587524
1760898521544216600,7.396216552734375,0.029634475708007812,-0.001344442367553711,-0.034983664751052856
1760898521553905200,7.4059052734375,0.12431812286376953,-0.018146038055419922,-0.012363404035568237
1760898521563593500,7.415593505859375,0.1565227508544922,-0.022368192672729492,-0.022458165884017944
1760898521573282000,7.425281982421875,0.08941459655761719,-0.036151885986328125,0.009821534156799316
1760898521582970600,7.434970703125,0.018445968627929688,-0.024457931518554688,0.04190972447395325
1760898521592659200,7.4446591796875,-0.037631988525390625,-0.010208606719970703,0.03506991267204285
1760898521612036400,7.464036376953125,-0.07798194885253906,0.05064666271209717,-0.010806411504745483
1760898521621724700,7.473724609375,-0.0820169448852539,0.10570883750915527,-0.021108925342559814
1760898521631413200,7.483413330078125,-0.06268501281738281,0.1143655776977539,-0.022547155618667603
1760898521641101800,7.493101806640625,-0.04371929168701172,0.10906779766082764,-0.024007171392440796
1760898521650790400,7.502790283203125,0.0033311843872070312,0.09809494018554688,-0.01592877507209778
1760898521660479000,7.51247900390625,0.021630287170410156,0.06675100326538086,-0.045340150594711304
1760898521670167600,7.52216748046875,0.0070133209228515625,0.06199181079864502,-0.05497339367866516
1760898521679855900,7.53185595703125,0.00704193115234375,0.03185164928436279,-0.05902501940727234
1760898521689544400,7.54154443359375,-0.016251564025878906,-0.013254880905151367,-0.043994516134262085
1760898521699233000,7.55123291015625,-0.024964332580566406,-0.043924927711486816,-0.029321640729904175
1760898521708921600,7.560921630859375,-0.052451133728027344,-0.04525625705718994,0.018017590045928955
1760898521718610200,7.570610107421875,-0.05144309997558594,-0.040708184242248535,0.05102136731147766
1760898521728298800,7.580298828125,-0.003520965576171875,-0.026135563850402832,0.07939407229423523
1760898521737987000,7.589987060546875,0.057682037353515625,-0.030396461486816406,0.06501814723014832
1760898521747675600,7.599675537109375,0.09433650970458984,-0.053296566009521484,0.0690266489982605
1760898521757364200,7.6093642578125,0.040874481201171875,-0.051599979400634766,0.05365639925003052
1760898521767052800,7.619052734375,-0.007184028625488281,-0.04408395290374756,0.024823755025863647
1760898521776741400,7.628741455078125,-0.031044960021972656,-0.03589427471160889,0.006187558174133301
1760898521786430000,7.638429931640625,0.0019540786743164062,-0.0465548038482666,-0.0077533721923828125
1760898521796118300,7.6481181640625,0.03917884826660156,-0.06208944320678711,-0.012466847896575928
1760898521805806800,7.657806884765625,0.0287933349609375,-0.049582600593566895,-0.017101436853408813
1760898521815495400,7.667495361328125,-0.0001697540283203125,-0.01891326904296875,-0.035776108503341675
1760898521825184000,7.67718408203125,-0.019156455993652344,-0.017569661140441895,-0.016195088624954224
1760898521834872600,7.68687255859375,0.009374618530273438,0.0063588619232177734,-0.015675365924835205
1760898521844561200,7.69656103515625,0.0093536376953125,0.033562421798706055,-0.005681723356246948
1760898521854249500,7.70624951171875,0.00004482269287109375,0.03598427772521973,-0.024054378271102905
1760898521863938000,7.71593798828125,-0.0043087005615234375,0.009570956230163574,-0.023445844650268555
1760898521873626600,7.725626708984375,-0.022744178771972656,0.00266420841217041,-0.027642130851745605
1760898521883315200,7.735315185546875,-0.02682971954345703,0.010456204414367676,-0.03161337971687317
1760898521893003800,7.745003662109375,0.0019817352294921875,-0.000013113021850585938,-0.007241368293762207
1760898521902692400,7.7546923828125,-0.016881942749023438,0.009540677070617676,-0.026456505060195923
1760898521912381000,7.764380859375,-0.026192665100097656,0.015471220016479492,-0.01318463683128357
1760898521922069200,7.7740693359375,-0.0261077880859375,0.05536973476409912,-0.014442086219787598
1760898521931757800,7.7837578125,-0.05909442901611328,0.06244099140167236,-0.01078823208808899
1760898521941446400,7.7934462890625,-0.03036022186279297,0.0553736686706543,-0.03568115830421448
1760898521951135000,7.803135009765625,-0.001995086669921875,0.057140350341796875,-0.03665435314178467
1760898521960823600,7.812823486328125,0.02135467529296875,0.0437312126159668,-0.04237741231918335
1760898521970512100,7.82251220703125,0.002086639404296875,0.0109330415725708,-0.005669921636581421
1760898521980200700,7.83220068359375,-0.007411003112792969,0.0159989595413208,-0.020826250314712524
1760898521989889300,7.84188916015625,-0.02147960662841797,-0.01195073127746582,0.002656310796737671
1760898521999577600,7.85157763671875,-0.02122783660888672,-0.020494461059570312,0.03559431433677673
1760898522009266200,7.86126611328125,-0.02097606658935547,-0.03360188007354736,0.03492891788482666
1760898522018954800,7.870954833984375,-0.0018901824951171875,0.005157589912414551,0.039111316204071045
1760898522028643300,7.880643310546875,0.031032562255859375,0.0005784034729003906,0.029559075832366943
1760898522038332000,7.890331787109375,0.0352020263671875,-0.027676820755004883,0.029786527156829834
1760898522048020500,7.9000205078125,0.029877662658691406,-0.05064213275909424,0.03448975086212158
1760898522057709000,7.909708984375,-0.031922340393066406,-0.04442334175109863,0.03934094309806824
1760898522067397400,7.9193974609375,-0.045745849609375,-0.02820730209350586,0.039578914642333984
1760898522077086000,7.9290859375,-0.0028791427612304688,-0.045082807540893555,-0.012213379144668579
1760898522086774500,7.9387744140625,0.04405975341796875,-0.038590312004089355,-0.011769920587539673
1760898522096463000,7.948463134765625,0.03852558135986328,-0.01853466033935547,-0.020893752574920654
1760898522106151700,7.958151611328125,0.02843761444091797,-0.01808631420135498,-0.015425711870193481
1760898522115840300,7.96784033203125,0.05155754089355469,0.0006154775619506836,-0.02922952175140381
1760898522125528800,7.97752880859375,0.046181678771972656,0.01361691951751709,-0.02934744954109192
1760898522135217400,7.987217529296875,0.031546592712402344,0.04017293453216553,-0.03917989134788513
1760898522144906000,7.996906005859375,-0.0016489028930664062,0.04733288288116455,-0.0488739013671875
1760898522154594300,8.00659423828125,-0.04374885559082031,0.054689884185791016,-0.01604333519935608
1760898522164283000,8.016282958984375,-0.05695533752441406,0.07164573669433594,-0.030999422073364258
1760898522173971500,8.025971435546875,-0.060619354248046875,0.05121779441833496,-0.017364442348480225
1760898522183660000,8.035659912109375,-0.07372474670410156,0.017568588256835938,0.0009157657623291016
1760898522193348600,8.0453486328125,-0.08194160461425781,-0.005878567695617676,0.0000502467155456543
1760898522203037200,8.055037109375,-0.047629356384277344,-0.0432589054107666,-0.03866705298423767
1760898522212725800,8.064725830078125,0.005034446716308594,-0.033616065979003906,-0.02014818787574768
1760898522222414300,8.074414306640625,0.056937217712402344,-0.053140997886657715,-0.0018176734447479248
1760898522232103000,8.08410302734375,0.07513236999511719,-0.021241426467895508,0.02106878161430359
1760898522241791200,8.093791259765625,0.050690650939941406,-0.013619184494018555,0.03938058018684387
1760898522251479800,8.103479736328126,0.045421600341796875,-0.015306234359741211,0.0628674328327179
1760898522261168400,8.11316845703125,0.044875144958496094,-0.0072174072265625,0.07713469862937927
1760898522270857000,8.12285693359375,0.025411605834960938,0.0014159679412841797,0.04869803786277771
1760898522280545500,8.132545654296875,0.0014438629150390625,-0.01741766929626465,0.024726569652557373
1760898522290234000,8.142234130859375,-0.02229022979736328,-0.020670771598815918,-0.01809719204902649
1760898522299922700,8.151922607421875,-0.04107189178466797,-0.004017233848571777,-0.02295258641242981
1760898522309611300,8.161611328125,-0.04077339172363281,0.0081024169921875,-0.05169117450714111
1760898522319299800,8.1712998046875,-0.016880035400390625,0.02437591552734375,-0.03811034560203552
1760898522328988400,8.180988525390624,0.025567054748535156,0.025451183319091797,-0.010662972927093506
1760898522338677000,8.190677001953125,0.048630714416503906,0.04899871349334717,-0.006757110357284546
1760898522348365600,8.200365478515625,0.014959335327148438,0.005461692810058594,0.006696820259094238
1760898522358054000,8.210053955078125,0.000743865966796875,-0.0189894437789917,0.0199795663356781
1760898522367742500,8.219742431640626,-0.01797199249267578,0.004139065742492676,0.03819969296455383
1760898522377431000,8.22943115234375,-0.045864105224609375,-0.005716204643249512,0.019243836402893066
1760898522387119600,8.23911962890625,-0.0074062347412109375,-0.029627442359924316,0.029238909482955933
1760898522396808200,8.24880810546875,0.025801658630371094,-0.044280409812927246,-0.017700284719467163
1760898522406496800,8.258496826171875,0.035010337829589844,-0.04983627796173096,-0.021426379680633545
1760898522416185300,8.268185302734375,0.025292396545410156,-0.04163491725921631,-0.019705355167388916
1760898522425874000,8.2778740234375,0.0393524169921875,-0.03884541988372803,-0.017882078886032104
1760898522435562500,8.2875625,0.029705047607421875,-0.022324323654174805,-0.01149645447731018
1760898522445251000,8.2972509765625,0.02492237091064453,-0.029491543769836426,-0.029217243194580078
1760898522454939600,8.306939697265625,-0.008080482482910156,-0.031380534172058105,-0.02804553508758545
1760898522464628200,8.316628173828125,-0.012404441833496094,0.014496564865112305,-0.0033461153507232666
1760898522474316500,8.326316650390625,-0.0026445388793945312,0.02734363079071045,0.020959407091140747
1760898522484005400,8.33600537109375,-0.011963844299316406,0.031120777130126953,0.012085378170013428
1760898522493693700,8.345693603515626,0.00235748291015625,0.049278855323791504,-0.0016146600246429443
1760898522503382300,8.35538232421875,-0.0023794174194335938,0.05783224105834961,-0.034571051597595215
1760898522513070800,8.36507080078125,-0.025926589965820312,0.04316675662994385,-0.024851471185684204
1760898522522759400,8.374759521484375,-0.05387401580810547,0.02931797504425049,-0.024854570627212524
1760898522532448000,8.384447998046875,-0.03438758850097656,0.002284526824951172,-0.025548577308654785
1760898522542136600,8.394136474609375,-0.04358863830566406,-0.013954520225524902,-0.040944069623947144
1760898522551825200,8.4038251953125,-0.038646697998046875,-0.014989614486694336,-0.018447041511535645
1760898522561513700,8.413513671875,-0.015026092529296875,0.007865190505981445,0.003997445106506348
1760898522571202300,8.423202392578125,0.06007099151611328,0.020235061645507812,0.03566423058509827
1760898522580891000,8.432890869140625,0.07758140563964844,0.045591115951538086,0.04360654950141907
1760898522590579500,8.442579345703125,0.06668853759765625,0.03194844722747803,0.042694419622421265
1760898522600268000,8.45226806640625,0.04666614532470703,0.022539258003234863,0.004482865333557129
1760898522609956600,8.46195654296875,0.0035390853881835938,-0.0014036893844604492,-0.00964018702507019
1760898522619645000,8.47164501953125,-0.01526641845703125,0.0028314590454101562,-0.004799872636795044
1760898522629333800,8.481333740234374,-0.0054759979248046875,-0.012167096138000488,-0.013931363821029663
1760898522639022000,8.49102197265625,0.02768707275390625,-0.045722126960754395,-0.023225486278533936
1760898522648710700,8.500710693359375,-0.029205322265625,-0.04506659507751465,-0.009447455406188965
1760898522658399200,8.510399169921875,-0.0665435791015625,-0.038330078125,-0.010044872760772705
1760898522668087800,8.520087890625,-0.07051753997802734,-0.021038413047790527,-0.005752623081207275
1760898522677776400,8.5297763671875,-0.04160022735595703,-0.0032529830932617188,0.021824568510055542
1760898522687465000,8.53946484375,-0.008531570434570312,-0.008854508399963379,0.03500846028327942
1760898522697153500,8.549153564453125,0.014607429504394531,-0.00048160552978515625,0.015197545289993286
1760898522706842000,8.558842041015625,0.05163002014160156,-0.0025826692581176758,-0.018652886152267456
1760898522716530700,8.56853076171875,0.064666748046875,-0.029214143753051758,0.00450548529624939
1760898522726219300,8.57821923828125,0.04938793182373047,-0.013965129852294922,0.003913819789886475
1760898522735907800,8.587907958984376,0.025038719177246094,-0.04188942909240723,-0.0013740062713623047
1760898522745596400,8.597596435546874,0.010570526123046875,-0.06509184837341309,0.003047078847885132
1760898522755285000,8.607284912109375,-0.00829315185546875,-0.05070674419403076,0.0026537179946899414
1760898522764973600,8.6169736328125,-0.02207469940185547,-0.013481378555297852,-0.0022298991680145264
1760898522774662100,8.626662109375,-0.04026031494140625,-0.0244978666305542,0.0076344311237335205
1760898522784350700,8.636350830078126,-0.020384788513183594,-0.007887721061706543,0.00826224684715271
1760898522794039300,8.646039306640626,0.018082618713378906,-0.02987372875213623,0.018482863903045654
1760898522803728000,8.655727783203124,0.022965431213378906,-0.023360610008239746,0.010336369276046753
1760898522813416400,8.66541650390625,0.008891105651855469,-0.02142167091369629,0.012233138084411621
1760898522823105000,8.67510498046875,0.027863502502441406,0.0001112222671508789,0.028389424085617065
1760898522832793600,8.684793701171875,0.03697967529296875,0.008083462715148926,0.02035433053970337
1760898522842482200,8.694482177734375,0.017577171325683594,0.030945777893066406,0.002701699733734131
1760898522852170500,8.70417041015625,0.007800102233886719,0.05421948432922363,-0.005697876214981079
1760898522861859300,8.713859375,-0.020727157592773438,0.05895435810089111,-0.028606027364730835
1760898522871547600,8.723547607421875,-0.025266647338867188,0.07323837280273438,-0.042233794927597046
1760898522881236200,8.733236328125,-0.0014619827270507812,0.0730365514755249,-0.03258293867111206
1760898522890924800,8.7429248046875,0.007875442504882812,0.07259476184844971,-0.056285589933395386
1760898522900613400,8.75261328125,-0.015852928161621094,0.05310368537902832,-0.04179757833480835
1760898522910302000,8.762302001953126,-0.025035858154296875,0.03841698169708252,-0.04155546426773071
1760898522919990500,8.771990478515624,0.003627777099609375,0.037749648094177246,-0.03636729717254639
1760898522929679000,8.78167919921875,-0.0010690689086914062,0.008518576622009277,-0.02208024263381958
1760898522939367700,8.79136767578125,-0.005611419677734375,-0.001858353614807129,-0.026950329542160034
1760898522949056300,8.80105615234375,-0.005345344543457031,-0.007582664489746094,-0.02210092544555664
1760898522958744800,8.810744873046875,-0.014544486999511719,-0.03180515766143799,0.011338204145431519
1760898522968433400,8.820433349609376,-0.018972396850585938,-0.03152179718017578,0.03947874903678894
1760898522978122000,8.8301220703125,0.009530067443847656,-0.04949390888214111,0.029354572296142578
1760898522987810600,8.839810546875,0.028095245361328125,-0.05270266532897949,0.019250541925430298
1760898522997499100,8.8494990234375,0.04164314270019531,-0.04174017906188965,0.04707515239715576
1760898523007187700,8.859187744140625,0.050293922424316406,-0.035889267921447754,0.03677123785018921
1760898523016876300,8.868876220703125,0.0870819091796875,-0.03517794609069824,-0.0013873577117919922
1760898523026564900,8.87856494140625,0.05741310119628906,-0.02528977394104004,-0.02021726965904236
1760898523036253400,8.88825341796875,-0.004681587219238281,-0.01568317413330078,-0.020005464553833008
1760898523045942000,8.89794189453125,-0.0045680999755859375,0.017289280891418457,-0.024372190237045288
1760898523055630600,8.907630615234375,-0.01853179931640625,0.03066551685333252,-0.052439719438552856
1760898523065319200,8.917319091796875,-0.05576515197753906,0.024878740310668945,-0.04271450638771057
1760898523075007700,8.9270078125,-0.06412410736083984,0.033182740211486816,-0.0472160279750824
1760898523084696300,8.9366962890625,-0.03942298889160156,0.03674900531768799,-0.018552660942077637
1760898523094385000,8.946385009765624,-0.04340839385986328,0.012250304222106934,-0.018506675958633423
1760898523104073500,8.956073486328124,-0.023843765258789062,-0.021015167236328125,-0.00876307487487793
1760898523113762000,8.965761962890625,0.018881797790527344,-0.011136889457702637,-0.017832070589065552
1760898523123450600,8.97545068359375,0.03258323669433594,-0.019667387008666992,0.001075059175491333
1760898523133139200,8.98513916015625,0.012971878051757812,-0.013032078742980957,0.0055495500564575195
1760898523142827800,8.994827880859376,-0.0064868927001953125,0.004029989242553711,0.014690756797790527
1760898523152516400,9.004516357421876,-0.01633739471435547,-0.0018256902694702148,0.037397295236587524
1760898523162205000,9.014204833984374,0.02103424072265625,0.016165494918823242,0.006976723670959473
1760898523171893500,9.0238935546875,0.034302711486816406,0.014803528785705566,-0.018666565418243408
1760898523181582000,9.03358203125,0.02860546112060547,0.0034799575805664062,-0.005860954523086548
1760898523191270700,9.043270751953125,0.04192161560058594,0.0010808706283569336,-0.016476064920425415
1760898523200959200,9.052959228515626,0.01745319366455078,-0.0018306970596313477,-0.02216494083404541
1760898523210647800,9.062647705078126,-0.011250495910644531,-0.00041663646697998047,-0.041771918535232544
1760898523220336400,9.07233642578125,-0.00646209716796875,-0.004164218902587891,-0.047151923179626465
1760898523230025000,9.08202490234375,-0.0017099380493164062,0.02486884593963623,-0.029156655073165894
1760898523239713500,9.091713623046875,-0.020574569702148438,0.05340445041656494,0.0029524564743041992
1760898523249402000,9.101402099609375,-0.015587806701660156,0.06720900535583496,0.01145845651626587
1760898523259090700,9.111090576171875,0.0034513473510742188,0.05241382122039795,0.029338747262954712
1760898523268779300,9.120779296875,0.03159809112548828,0.023620128631591797,0.00004500150680541992
1760898523278467800,9.1304677734375,0.0027875900268554688,0.0001291036605834961,-0.009954392910003662
1760898523288156400,9.140156494140625,-0.0020685195922851562,-0.017917633056640625,-0.005591005086898804
1760898523297845000,9.149844970703125,0.0025157928466796875,-0.0117872953414917,0.022194355726242065
1760898523307533600,9.159533447265625,-0.02122211456298828,-0.01976335048675537,0.016348809003829956
1760898523317222100,9.16922216796875,-0.03515338897705078,-0.008673429489135742,0.010164856910705566
1760898523326910700,9.17891064453125,-0.020590782165527344,-0.02611684799194336,0.008450031280517578
1760898523336599300,9.188599365234374,-0.010926246643066406,-0.020090937614440918,0.01634073257446289
1760898523346287900,9.198287841796875,-0.006104469299316406,-0.019214868545532227,0.020204275846481323
1760898523355976400,9.2079765625,0.0033788681030273438,-0.028101563453674316,0.0010230541229248047
1760898523365665000,9.2176650390625,-0.006121635437011719,-0.06517767906188965,0.025029093027114868
1760898523375353600,9.227353515625,-0.02485370635986328,-0.050083160400390625,0.0019602179527282715
1760898523385042200,9.237042236328126,0.008548736572265625,-0.04039204120635986,-0.006301164627075195
1760898523394730800,9.246730712890624,0.022691726684570312,-0.012835383415222168,0.0044158995151519775
1760898523404419300,9.25641943359375,0.027292251586914062,-0.019359111785888672,-0.013281017541885376
1760898523414108000,9.26610791015625,-0.0011186599731445312,-0.04460132122039795,-0.026186376810073853
1760898523423796500,9.27579638671875,-0.015018463134765625,-0.050032615661621094,-0.015573889017105103
1760898523433485000,9.285485107421875,-0.014651298522949219,-0.021869659423828125,-0.014646053314208984
1760898523443173600,9.295173583984376,0.023316383361816406,-0.017365574836730957,0.00004416704177856445
1760898523452862200,9.3048623046875,0.037102699279785156,-0.008000612258911133,-0.028333812952041626
1760898523462550800,9.31455078125,0.0459136962890625,-0.012569546699523926,-0.009633064270019531
1760898523472239400,9.3242392578125,0.00745391845703125,0.025736689567565918,0.01808902621269226
1760898523481928000,9.333927978515625,-0.016317367553710938,0.049725890159606934,0.007771193981170654
1760898523491616500,9.343616455078125,-0.0020189285278320312,0.06848526000976562,0.006862461566925049
1760898523501305000,9.35330517578125,-0.0020084381103515625,0.044118642807006836,0.001297682523727417
1760898523510993700,9.36299365234375,0.01690196990966797,0.029003381729125977,-0.008540332317352295
1760898523520682200,9.37268212890625,-0.0068721771240234375,0.01885688304901123,-0.0036954283714294434
1760898523530370800,9.382370849609375,-0.039691925048828125,0.0090104341506958,0.010846942663192749
1760898523540059600,9.3920595703125,-0.020218849182128906,0.004051923751831055,0.00680309534072876
1760898523549748000,9.401748046875,-0.0010690689086914062,-0.000809788703918457,-0.001948624849319458
1760898523559436500,9.4114365234375,-0.02458477020263672,-0.005583286285400391,-0.010815709829330444
1760898523569125400,9.42112548828125,-0.024171829223632812,0.01783764362335205,-0.005042910575866699
1760898523578814000,9.43081396484375,-0.009644508361816406,0.007795929908752441,-0.022356033325195312
1760898523588502500,9.44050244140625,0.009435653686523438,0.00674593448638916,-0.015860378742218018
1760898523598191000,9.450191162109375,0.009451866149902344,-0.013580679893493652,-0.04725968837738037
1760898523607879700,9.459879638671875,0.00011920928955078125,-0.0009773969650268555,-0.06901144981384277
1760898523617568300,9.469568359375,-0.018463134765625,-0.030823588371276855,-0.06766387820243835
1760898523627256800,9.4792568359375,-0.022665977478027344,-0.003245115280151367,-0.02468264102935791
1760898523636945400,9.4889453125,0.0013837814331054688,0.0006875991821289062,-0.005964487791061401
1760898523646634000,9.498634033203125,0.0296630859375,0.009720563888549805,0.026751071214675903
1760898523656322600,9.508322509765625,0.057364463806152344,0.014586687088012695,0.03533962368965149
1760898523666011100,9.51801123046875,0.051560401916503906,0.0012384653091430664,0.024909108877182007
1760898523675699700,9.52769970703125,0.02692413330078125,0.035858154296875,0.03814697265625
1760898523685388300,9.53738818359375,0.012051582336425781,0.04671144485473633,0.027861356735229492
1760898523695076900,9.547076904296874,0.0021333694458007812,0.033847689628601074,0.013076037168502808
1760898523704765400,9.556765380859375,-0.02169513702392578,0.016385912895202637,-0.030525952577590942
1760898523714454000,9.5664541015625,-0.05923938751220703,-0.02419734001159668,-0.05998072028160095
1760898523724142600,9.576142578125,-0.058503150939941406,-0.012343287467956543,-0.03268301486968994
1760898523733831200,9.5858310546875,-0.029491424560546875,-0.010445475578308105,0.01301807165145874
1760898523743519700,9.595519775390626,0.0038328170776367188,-0.009266138076782227,-0.0027313232421875
1760898523753208300,9.605208251953124,0.05557537078857422,-0.023363828659057617,0.006025373935699463
1760898523762897000,9.61489697265625,0.07364463806152344,-0.01942276954650879,0.02013498544692993
1760898523772585500,9.62458544921875,0.08206748962402344,-0.02552926540374756,0.034706562757492065
1760898523782274000,9.634274169921875,0.02917957305908203,-0.02693808078765869,0.039946287870407104
1760898523791963000,9.643962890625,-0.022874832153320312,-0.023259758949279785,-0.006865859031677246
1760898523801651500,9.6536513671875,-0.03648185729980469,-0.00964653491973877,-0.015903949737548828
1760898523811340000,9.663340087890624,-0.04524040222167969,0.004430294036865234,-0.03493502736091614
1760898523821028600,9.673028564453125,-0.04453086853027344,0.04719114303588867,-0.011766433715820312
1760898523830717200,9.68271728515625,-0.029815673828125,0.019320130348205566,-0.003162860870361328
1760898523840405800,9.69240576171875,-0.02947711944580078,0.05318188667297363,0.0052880942821502686
1760898523850094300,9.70209423828125,0.0038633346557617188,0.0577692985534668,-0.02853754162788391
1760898523859783000,9.711782958984376,0.03674507141113281,0.05217087268829346,-0.019133269786834717
1760898523869471500,9.721471435546874,0.03623771667480469,0.03186476230621338,-0.02387264370918274
1760898523879160000,9.73116015625,0.012227058410644531,0.021206259727478027,-0.03329089283943176
1760898523888848600,9.7408486328125,-0.016152381896972656,-0.002920866012573242,-0.04286545515060425
1760898523898537200,9.750537109375,-0.020601272583007812,-0.011951208114624023,-0.029256194829940796
1760898523908225800,9.760225830078125,-0.025037765502929688,-0.010962486267089844,-0.0020000338554382324
1760898523917914400,9.769914306640626,0.0035409927368164062,-0.00999760627746582,0.010718971490859985
1760898523927603000,9.77960302734375,0.05519676208496094,-0.01399219036102295,0.02361777424812317
1760898523937291500,9.78929150390625,0.07306957244873047,-0.018146514892578125,0.022636979818344116
1760898523946980000,9.79897998046875,0.010607719421386719,-0.05022931098937988,0.0029101967811584473
1760898523956668700,9.808668701171875,-0.032062530517578125,-0.04837203025817871,-0.011720508337020874
1760898523966357500,9.818357421875,-0.04582691192626953,-0.055617690086364746,0.006493985652923584
1760898523976046000,9.828046142578126,-0.03109455108642578,-0.039330124855041504,0.014557242393493652
1760898523985734400,9.837734375,-0.007143974304199219,-0.028367280960083008,0.008402973413467407
1760898523995423200,9.84742333984375,-0.0023784637451171875,-0.036746859550476074,-0.0066245198249816895
1760898524005111800,9.85711181640625,0.0023670196533203125,-0.031435608863830566,0.021744459867477417
1760898524014800400,9.86680029296875,0.03060626983642578,-0.012552022933959961,0.008097916841506958
1760898524024489000,9.876489013671875,0.01611042022705078,-0.027619123458862305,0.023436158895492554
1760898524034177500,9.886177490234376,0.02543926239013672,-0.014649271965026855,0.020131289958953857
1760898524043866000,9.8958662109375,0.0064258575439453125,-0.035169363021850586,-0.0018631219863891602
1760898524053554700,9.9055546875,-0.007533073425292969,-0.022625327110290527,-0.004588574171066284
1760898524063243300,9.9152431640625,-0.0023956298828125,-0.0340425968170166,-0.012105196714401245
1760898524072931800,9.924931884765625,0.0073795318603515625,-0.007735729217529297,-0.028908342123031616
1760898524082620400,9.934620361328125,0.021749496459960938,0.003675222396850586,-0.021902084350585938
1760898524092309000,9.94430908203125,0.04064464569091797,0.01925837993621826,-0.029226213693618774
1760898524101997600,9.95399755859375,0.0450592041015625,0.006693601608276367,-0.027164548635482788
1760898524111686100,9.96368603515625,-0.016653060913085938,0.023720145225524902,-0.03473198413848877
1760898524121374700,9.973374755859375,-0.07285213470458984,0.032534241676330566,-0.01880967617034912
1760898524131063600,9.9830634765625,-0.06241035461425781,0.061271071434020996,-0.0365472137928009
1760898524140752100,9.992752197265625,-0.028642654418945312,0.10396885871887207,-0.021753638982772827
1760898524150440700,10.002440673828126,-0.0000934600830078125,0.08923029899597168,-0.02634364366531372
1760898524160129300,10.01212939453125,0.05156517028808594,0.07907938957214355,-0.03555411100387573
1760898524169817900,10.02181787109375,0.03654956817626953,0.016869306564331055,-0.030440926551818848
1760898524179506400,10.03150634765625,0.02649402618408203,0.007471442222595215,-0.030284583568572998
1760898524189195000,10.041195068359375,0.007155418395996094,-0.04376578330993652,-0.021259605884552002
1760898524198883600,10.050883544921875,0.006927490234375,-0.027905941009521484,-0.01776215434074402
1760898524208572200,10.060572265625,0.011353492736816406,-0.021372079849243164,0.03279680013656616
1760898524218260700,10.0702607421875,0.015689849853515625,-0.024365663528442383,0.059584975242614746
1760898524227949300,10.07994921875,0.05292510986328125,-0.027652621269226074,0.058388590812683105
1760898524237638000,10.089637939453125,0.05194568634033203,-0.040756940841674805,0.05310755968093872
1760898524247326500,10.099326416015625,0.04634571075439453,0.002257704734802246,0.034380942583084106
1760898524257015000,10.10901513671875,0.007964134216308594,-0.012361526489257812,0.0019274353981018066
1760898524266704000,10.118703857421876,-0.02031707763671875,-0.03636491298675537,-0.0163729190826416
1760898524276392400,10.128392333984374,-0.038672447204589844,-0.01772165298461914,-0.04460817575454712
1760898524286081000,10.1380810546875,-0.052041053771972656,0.0008481740951538086,-0.049235522747039795
1760898524295769600,10.14776953125,-0.02756786346435547,0.014643311500549316,-0.04467010498046875
1760898524305458200,10.157458251953125,0.015271186828613281,0.028548479080200195,-0.035474926233291626
1760898524315146800,10.167146728515625,0.014989852905273438,0.0237276554107666,0.006560325622558594
1760898524324835300,10.17683544921875,0.02410411834716797,0.052020907402038574,0.01987728476524353
1760898524334524000,10.18652392578125,0.023598670959472656,0.051929473876953125,0.009643077850341797
1760898524344212500,10.19621240234375,-0.019300460815429688,0.04745602607727051,0.01367071270942688
1760898524353901000,10.205901123046875,-0.03796672821044922,0.033751487731933594,-0.005976825952529907
1760898524363589600,10.215589599609375,-0.0092620849609375,-0.007953047752380371,-0.03015086054801941
1760898524373278200,10.2252783203125,0.004848480224609375,-0.04895174503326416,-0.025738894939422607
1760898524382967000,10.234967041015626,0.00458526611328125,-0.05148887634277344,-0.011962205171585083
1760898524392655600,10.244655517578124,-0.005168914794921875,-0.07703495025634766,0.01132875680923462
1760898524402344200,10.25434423828125,0.0040149688720703125,-0.04544341564178467,0.0204983651638031
1760898524412032800,10.26403271484375,0.060187339782714844,-0.04318046569824219,0.029628843069076538
1760898524421721300,10.273721435546875,0.09674549102783203,-0.032581329345703125,0.0484451949596405
1760898524431410000,10.283409912109375,0.05753612518310547,-0.013785004615783691,0.03465983271598816
1760898524441098500,10.293098388671876,0.009679794311523438,-0.0008230209350585938,0.026253610849380493
1760898524450787000,10.302787109375,-0.009051322937011719,-0.007587909698486328,-0.01457899808883667
1760898524460475600,10.3124755859375,-0.022681236267089844,-0.000681757926940918,-0.035828590393066406
1760898524470164200,10.322164306640625,-0.03128242492675781,-0.003858327865600586,-0.0428849458694458
1760898524479852800,10.331852783203125,-0.016198158264160156,-0.002265453338623047,-0.03139233589172363
1760898524489541600,10.341541748046875,-0.02490520477294922,0.008833169937133789,-0.025058656930923462
1760898524499230200,10.351230224609376,-0.033535003662109375,0.04844248294830322,-0.018865615129470825
1760898524508918800,10.360918701171874,0.004985809326171875,0.04538238048553467,-0.022205233573913574
1760898524518607400,10.370607421875,0.03812408447265625,0.06154346466064453,-0.03550276160240173
1760898524528296000,10.3802958984375,0.033003807067871094,0.0825873613357544,-0.030060291290283203
1760898524537984500,10.389984619140625,0.004288673400878906,0.07134926319122314,-0.029588550329208374
1760898524547673000,10.399673095703125,-0.047684669494628906,0.047640204429626465,-0.015616804361343384
1760898524557361700,10.409361572265626,-0.04249000549316406,0.02556586265563965,-0.016753703355789185
1760898524567050200,10.41905029296875,0.00014209747314453125,0.023589730262756348,-0.03726181387901306
1760898524576738800,10.42873876953125,0.01377105712890625,0.007985472679138184,-0.010726898908615112
1760898524586427400,10.438427490234375,-0.0011034011840820312,0.002273082733154297,0.006215184926986694
1760898524596116000,10.448115966796875,-0.0015859603881835938,-0.022397756576538086,0.013820260763168335
1760898524605804800,10.4578046875,0.00745391845703125,0.004423856735229492,-0.0068063437938690186
1760898524615493400,10.467493408203126,0.0023965835571289062,-0.04563271999359131,0.001276552677154541
1760898524625182000,10.477181884765624,-0.011816024780273438,-0.03493237495422363,0.00041410326957702637
1760898524634870500,10.48687060546875,0.016786575317382812,-0.030713796615600586,0.014302343130111694
1760898524644559000,10.49655908203125,0.0686349868774414,-0.03275191783905029,-0.013338983058929443
1760898524654247700,10.50624755859375,0.0538482666015625,-0.04036521911621094,-0.001982569694519043
1760898524663936300,10.515936279296875,0.034638404846191406,-0.0152435302734375,0.04265835881233215
1760898524673624800,10.525624755859376,0.006264686584472656,-0.03241527080535889,0.011252999305725098
1760898524683313400,10.5353134765625,0.015831947326660156,-0.029312729835510254,0.0039702653884887695
1760898524693002000,10.545001953125,-0.04556846618652344,-0.024651169776916504,0.0005991160869598389
1760898524702690600,10.554690673828125,-0.05438709259033203,-0.009054899215698242,0.0053792595863342285
1760898524712379400,10.56437939453125,-0.03498077392578125,0.012234330177307129,0.0042407214641571045
1760898524722068000,10.57406787109375,-0.015974044799804688,0.019713997840881348,0.011713683605194092
1760898524731756500,10.583756591796876,-0.006740570068359375,0.027388572692871094,0.033057570457458496
1760898524741445000,10.593445068359374,0.011753082275390625,0.011278748512268066,0.026446491479873657
1760898524751133700,10.6031337890625,0.03936004638671875,-0.04243266582489014,-0.0028076767921447754
1760898524760822300,10.612822265625,0.043000221252441406,-0.06251633167266846,-0.007677614688873291
1760898524770510800,10.6225107421875,0.02305126190185547,-0.058827996253967285,-0.021414190530776978
1760898524780199400,10.632199462890625,-0.010664939880371094,-0.06941807270050049,-0.044401705265045166
1760898524789888000,10.641887939453126,-0.02962017059326172,-0.03322267532348633,-0.043946683406829834
1760898524799576600,10.65157666015625,-0.02933502197265625,-0.01232612133026123,-0.039195120334625244
1760898524809265400,10.661265380859374,-0.024282455444335938,0.02668464183807373,-0.006638228893280029
1760898524818954000,10.6709541015625,-0.019278526306152344,0.05068337917327881,-0.0074796974658966064
1760898524828642600,10.680642578125,-0.019031524658203125,0.05039858818054199,-0.002966076135635376
1760898524838331100,10.6903310546875,-0.014042854309082031,0.02153611183166504,-0.007565140724182129
1760898524848019700,10.700019775390626,-0.004399299621582031,0.030571460723876953,0.006866425275802612
1760898524857708300,10.709708251953124,-0.009011268615722656,0.025115251541137695,0.021380513906478882
1760898524867396900,10.71939697265625,0.0005846023559570312,0.04306316375732422,0.008046358823776245
1760898524877085400,10.72908544921875,0.00531768798828125,0.008847951889038086,-0.00938647985458374
1760898524886774000,10.73877392578125,0.02410125732421875,0.03627288341522217,-0.02163037657737732
1760898524896462600,10.748462646484375,-0.009156227111816406,0.039484262466430664,-0.01966598629951477
1760898524906151400,10.7581513671875,-0.027730941772460938,0.009701013565063477,-0.013368725776672363
1760898524915840000,10.767840087890624,-0.0224456787109375,0.02275669574737549,-0.03133469820022583
1760898524925528600,10.777528564453124,-0.031334877014160156,0.0213468074798584,-0.01642763614654541
1760898524935217200,10.787217041015625,0.002338409423828125,0.014890789985656738,-0.001988649368286133
1760898524944905700,10.79690576171875,0.026108741760253906,0.022193193435668945,0.02639642357826233
1760898524954594300,10.80659423828125,0.035388946533203125,-0.013202428817749023,0.026396214962005615
1760898524964283000,10.816282958984376,0.044422149658203125,-0.042711853981018066,0.02179613709449768
1760898524973971500,10.825971435546874,-0.012788772583007812,-0.07033860683441162,0.03134837746620178
1760898524983660000,10.835659912109374,-0.04574012756347656,-0.039530277252197266,0.017056792974472046
1760898524993348900,10.845348876953125,-0.0594329833984375,-0.027141809463500977,0.0068645179271698
1760898525003037400,10.855037353515625,-0.016429901123046875,-0.014736413955688477,-0.0371013879776001
1760898525012726000,10.86472607421875,0.02591228485107422,0.006510138511657715,-0.023856669664382935
1760898525022414600,10.87441455078125,0.048793792724609375,0.01738297939300537,0.03699856996536255
1760898525032103200,10.884103271484374,0.03847312927246094,-0.010503292083740234,-0.0012974143028259277
1760898525041791700,10.893791748046874,0.056654930114746094,-0.04331088066101074,-0.03872844576835632
1760898525051480300,10.903480224609375,0.022815704345703125,-0.07120227813720703,-0.00944364070892334
1760898525061169000,10.9131689453125,0.017774581909179688,-0.065673828125,0.0004610419273376465
1760898525070857500,10.922857421875,0.008080482482910156,-0.036454081535339355,-0.008873075246810913
1760898525080546300,10.93254638671875,-0.02976703643798828,-0.03536581993103027,-0.027809739112854004
1760898525090235000,10.94223486328125,-0.03411293029785156,-0.0055931806564331055,0.005379199981689453
1760898525099923500,10.95192333984375,-0.024295806884765625,0.037914276123046875,-0.01811528205871582
1760898525109612000,10.961612060546875,-0.00516510009765625,0.04258573055267334,-0.003406524658203125
1760898525119300600,10.971300537109375,0.009036064147949219,0.05589032173156738,0.011386096477508545
1760898525128989200,10.9809892578125,0.03254508972167969,0.06804895401000977,-0.0021044015884399414
1760898525138677800,10.990677734375,0.013387680053710938,0.055895209312438965,-0.02919253706932068
1760898525148366300,11.000366455078124,0.0040073394775390625,0.057724714279174805,-0.04620760679244995
1760898525158055200,11.01005517578125,0.004189491271972656,0.036121249198913574,-0.05864197015762329
1760898525167743700,11.01974365234375,-0.014507293701171875,0.04828619956970215,-0.06209304928779602
1760898525177432300,11.029432373046875,-0.02360057830810547,0.08456790447235107,-0.032528311014175415
1760898525187121000,11.039120849609375,-0.03264617919921875,0.09267652034759521,0.0013183951377868652
1760898525196809500,11.0488095703125,-0.036945343017578125,0.09200870990753174,0.0014404356479644775
1760898525206498000,11.058498046875,-0.050629615783691406,0.05872786045074463,0.0014545321464538574
1760898525216186600,11.0681865234375,-0.02643299102783203,0.01657998561859131,-0.022236019372940063
1760898525225875200,11.077875244140625,0.020966529846191406,-0.02061295509338379,-0.036346763372421265
1760898525235563800,11.087563720703125,0.03470611572265625,-0.05762636661529541,-0.022169560194015503
1760898525245252600,11.097252685546875,0.010599136352539062,-0.0754159688949585,-0.012759596109390259
1760898525254941200,11.106941162109376,0.019840240478515625,-0.08360087871551514,0.015605330467224121
1760898525264629800,11.116629638671874,0.047809600830078125,-0.07797861099243164,0.010861963033676147
1760898525274318300,11.126318359375,0.05653190612792969,-0.05396676063537598,0.04418480396270752
1760898525284007000,11.1360068359375,0.003932952880859375,-0.03976333141326904,0.04399394989013672
1760898525293695500,11.145695556640625,-0.005450248718261719,-0.04920303821563721,0.04834720492362976
1760898525303384000,11.155384033203125,0.004107475280761719,-0.05342602729797363,0.033282071352005005
1760898525313073000,11.165072998046876,-0.01953411102294922,-0.03806138038635254,0.032403647899627686
1760898525322761500,11.174761474609374,-0.03820037841796875,-0.01744675636291504,0.05044260621070862
1760898525332450000,11.184449951171874,-0.018990516662597656,-0.024840712547302246,0.035109370946884155
1760898525342138600,11.194138671875,0.009298324584960938,-0.017886996269226074,0.010540992021560669
1760898525351827200,11.2038271484375,0.02776813507080078,-0.025620222091674805,-0.022916078567504883
1760898525361515800,11.213515869140625,0.04131793975830078,-0.0292055606842041,-0.017794013023376465
1760898525371204400,11.223204345703126,0.0641927719116211,-0.014935135841369629,-0.016975492238998413
1760898525380893200,11.23289306640625,0.044478416442871094,-0.020759940147399902,-0.0157620906829834
1760898525390581800,11.242581787109375,0.025191307067871094,-0.0036420822143554688,-0.028556019067764282
1760898525400270300,11.252270263671875,-0.0031576156616210938,-0.0011507272720336914,-0.04563280940055847
1760898525409959000,11.261958984375,-0.02638530731201172,0.0063582658767700195,-0.029325544834136963
1760898525419647500,11.2716474609375,-0.03514289855957031,0.023500800132751465,-0.01859748363494873
1760898525429336000,11.281336181640626,-0.020262718200683594,0.03128933906555176,-0.003813236951828003
1760898525439024600,11.291024658203124,-0.0009593963623046875,0.06740379333496094,-0.01747649908065796
1760898525448713200,11.300713134765624,-0.010273933410644531,0.06088721752166748,-0.011662334203720093
1760898525458402000,11.310402099609375,-0.010062217712402344,0.06410503387451172,-0.005649387836456299
1760898525468090600,11.320090576171875,-0.028723716735839844,0.04877614974975586,-0.00932338833808899
1760898525477779200,11.329779296875,-0.056509971618652344,0.01981198787689209,-0.017982125282287598
1760898525487467800,11.3394677734375,-0.05090904235839844,0.0008620023727416992,-0.01711934804916382
1760898525497156400,11.34915625,-0.031221389770507812,-0.004101395606994629,-0.03960824012756348
1760898525506845000,11.358844970703124,0.007061958312988281,-0.00494992733001709,-0.023996442556381226
1760898525516533800,11.36853369140625,0.04009246826171875,-0.015869855880737305,0.005891621112823486
1760898525526222300,11.378222412109375,0.06325435638427734,-0.013170480728149414,0.03573504090309143
1760898525535911000,11.387910888671875,0.05314350128173828,-0.020270943641662598,0.0320439338684082
1760898525545599500,11.397599609375,0.010233879089355469,0.010614275932312012,0.032928287982940674
1760898525555288000,11.4072880859375,-0.008526802062988281,-0.0148087739944458,0.038181155920028687
1760898525564976600,11.4169765625,-0.017709732055664062,-0.024670004844665527,0.05712401866912842
1760898525574665200,11.426665283203125,-0.022165298461914062,-0.014633417129516602,0.03304067254066467
1760898525584353800,11.436353759765625,0.0016241073608398438,-0.02782762050628662,0.018587619066238403
1760898525594042400,11.44604248046875,0.025002479553222656,-0.045372962951660156,-0.0005654096603393555
1760898525603731200,11.455731201171876,0.03857898712158203,-0.0437774658203125,-0.024243712425231934
1760898525613419800,11.465419677734374,0.014275550842285156,-0.03749656677246094,-0.03321734070777893
1760898525623108400,11.4751083984375,0.009259223937988281,-0.012959599494934082,-0.01800626516342163
1760898525632797000,11.484796875,-0.00025177001953125,0.03376924991607666,0.01623627543449402
1760898525642485500,11.494485595703125,-0.00005245208740234375,0.04584634304046631,-0.029953420162200928
1760898525652174300,11.50417431640625,-0.013849258422851562,0.033378005027770996,-0.04242396354675293
1760898525661863000,11.51386279296875,-0.036765098571777344,0.006647706031799316,-0.036133408546447754
1760898525671551500,11.523551513671874,-0.054640769958496094,0.00894784927368164,-0.02540728449821472
1760898525681240000,11.533239990234375,-0.06765270233154297,0.016837477684020996,-0.03847655653953552
1760898525690928600,11.5429287109375,-0.03822898864746094,-0.002714872360229492,-0.018718332052230835
1760898525700617200,11.5526171875,0.0000171661376953125,0.006979823112487793,0.023978382349014282
1760898525710305800,11.562305908203125,0.042308807373046875,0.016620278358459473,0.056813329458236694
1760898525719994400,11.571994384765626,0.05570030212402344,0.044571876525878906,0.04727131128311157
1760898525729683200,11.58168310546875,0.04539775848388672,0.0151214599609375,0.04782348871231079
1760898525739371800,11.591371826171875,0.011819839477539062,0.00441586971282959,0.02978721261024475
1760898525749060400,11.601060302734375,-0.021127700805664062,-0.011264681816101074,-0.016332030296325684
1760898525758749000,11.6107490234375,-0.03466224670410156,0.00604248046875,-0.03833669424057007
1760898525768437500,11.6204375,-0.03857231140136719,-0.00974881649017334,-0.06960511207580566
1760898525778126000,11.6301259765625,-0.05191516876220703,0.0035420656204223633,-0.06292419135570526
1760898525787815000,11.63981494140625,-0.05097007751464844,0.02637171745300293,-0.05170169472694397
1760898525797503500,11.64950341796875,-0.00301361083984375,0.05374741554260254,-0.017215222120285034
1760898525807192000,11.659192138671875,0.04418468475341797,0.047487497329711914,-0.025812894105911255
1760898525816880600,11.668880615234375,0.05769634246826172,0.05050003528594971,-0.010858893394470215
1760898525826569200,11.6785693359375,0.056860923767089844,0.05356407165527344,0.003349810838699341
1760898525836257800,11.6882578125,0.02302837371826172,0.03830897808074951,-0.016228869557380676
1760898525845946600,11.697946533203124,0.00846099853515625,0.047744035720825195,-0.022156864404678345
1760898525855635200,11.70763525390625,-0.006045341491699219,0.020627140998840332,-0.037886589765548706
1760898525865323800,11.71732373046875,-0.001621246337890625,0.013695478439331055,-0.03006911277770996
1760898525875012400,11.727012451171875,0.0026769638061523438,0.007219195365905762,0.005853235721588135
1760898525884701000,11.736700927734375,0.011597633361816406,0.005667328834533691,-0.015389680862426758
1760898525894389500,11.746389404296876,-0.012543678283691406,-0.0007879734039306641,-0.0172460675239563
1760898525904078300,11.756078369140624,-0.03621196746826172,-0.016997933387756348,-0.028387486934661865
1760898525913767000,11.765766845703125,-0.05470085144042969,-0.005272388458251953,-0.015456229448318481
1760898525923455500,11.77545556640625,-0.030412673950195312,0.0007523298263549805,0.025756508111953735
1760898525933144000,11.78514404296875,-0.011101722717285156,-0.04600107669830322,0.01477918028831482
1760898525942832600,11.79483251953125,0.01744556427001953,-0.05064845085144043,0.028002411127090454
1760898525952521200,11.804521240234376,0.012647628784179688,-0.06049084663391113,0.022748470306396484
1760898525962210000,11.8142099609375,0.02206897735595703,-0.05156350135803223,0.027394920587539673
1760898525971898600,11.823898681640625,0.017190933227539062,-0.05677688121795654,0.01329737901687622
1760898525981587200,11.833587158203125,0.021747589111328125,-0.07554948329925537,0.013107776641845703
1760898525991275800,11.84327587890625,0.011980056762695312,-0.0366133451461792,0.026594430208206177
1760898526000964400,11.85296435546875,0.0022029876708984375,-0.025418877601623535,0.030279099941253662
1760898526010653000,11.86265283203125,0.011275291442871094,0.0006138086318969727,0.01037326455116272
1760898526020341800,11.872341796875,0.024852752685546875,0.026543617248535156,0.01426774263381958
1760898526030030300,11.8820302734375,0.028776168823242188,0.03802525997161865,0.013461023569107056
1760898526039719000,11.891718994140625,0.03267669677734375,0.04425382614135742,-0.001023024320602417
1760898526049407500,11.901407470703125,0.027181625366210938,0.035678863525390625,-0.024364113807678223
1760898526059096000,11.911095947265625,0.040686607360839844,0.04067492485046387,-0.018348604440689087
1760898526068784600,11.92078466796875,0.06341266632080078,0.04042232036590576,-0.025268882513046265
1760898526078473500,11.930473388671874,-0.041271209716796875,0.03524434566497803,-0.05998587608337402
1760898526088162000,11.940162109375,-0.012427330017089844,0.015918970108032227,-0.02351883053779602
1760898526097850600,11.9498505859375,-0.07346630096435547,-0.0030781030654907227,-0.03979915380477905
1760898526107539200,11.959539306640625,-0.006458282470703125,0.0018990039825439453,-0.04602956771850586
1760898526117227800,11.969227783203126,-0.0065288543701171875,-0.006856441497802734,-0.009436085820198059
1760898526126916400,11.978916259765626,-0.08201789855957031,-0.009847402572631836,0.05429467558860779
1760898526136605200,11.988605224609374,-0.005615234375,-0.04113459587097168,-0.02065861225128174
