time,seconds_elapsed,z,y,x
1760903910567877000,0.235877197265625,-0.26265811920166016,-0.2124621868133545,-0.3793301582336426
1760903910577566200,0.245566162109375,-0.3219776153564453,-0.27696260809898376,-0.49835455417633057
1760903910587255300,0.25525537109375,-0.3090400695800781,-0.3732774257659912,-0.5620272159576416
1760903910596944400,0.2649443359375,-0.27378368377685547,-0.502015233039856,-0.5486025810241699
1760903910606633500,0.274633544921875,-0.1896200180053711,-0.6153284907341003,-0.47779691219329834
1760903910616322600,0.284322509765625,-0.1471691131591797,-0.7971982955932617,-0.4573547840118408
1760903910626011600,0.29401171875,-0.14516830444335938,-0.9536615610122681,-0.4219878911972046
1760903910635700700,0.30370068359375,-0.11896896362304688,-1.094172716140747,-0.4561072587966919
1760903910645389800,0.313389892578125,-0.039203643798828125,-1.2533376216888428,-0.5013662576675415
1760903910655079200,0.3230791015625,-0.010339736938476562,-1.4004042148590088,-0.4949997663497925
1760903910664768300,0.332768310546875,0.0027074813842773438,-1.483961820602417,-0.44895339012145996
1760903910674457300,0.342457275390625,0.041632652282714844,-1.5663591623306274,-0.381223201751709
1760903910684146400,0.352146484375,-0.04700946807861328,-1.628146767616272,-0.24990463256835938
1760903910693835500,0.36183544921875,-0.21113014221191406,-1.6637049913406372,-0.14180755615234375
1760903910703524600,0.371524658203125,-0.3890800476074219,-1.7494722604751587,-0.11910796165466309
1760903910713213700,0.381213623046875,-0.5859575271606445,-1.8506410121917725,-0.18309473991394043
1760903910722902800,0.39090283203125,-0.7611732482910156,-1.8662604093551636,-0.26763105392456055
1760903910732591900,0.400591796875,-0.9395437240600586,-1.863095998764038,-0.337116003036499
1760903910742281000,0.410281005859375,-1.0806198120117188,-1.8218886852264404,-0.329395055770874
1760903910751970000,0.419969970703125,-1.0808172225952148,-1.8346275091171265,-0.2509791851043701
1760903910761659100,0.4296591796875,-0.9912614822387695,-1.8257471323013306,-0.1530778408050537
1760903910771348500,0.439348388671875,-0.9204320907592773,-1.7681207656860352,0.029448270797729492
1760903910781037600,0.44903759765625,-0.8624191284179688,-1.6671689748764038,0.2487647533416748
1760903910790726700,0.4587265625,-0.8441085815429688,-1.6108067035675049,0.3519783020019531
1760903910800415700,0.468415771484375,-0.9290628433227539,-1.559187889099121,0.43360066413879395
1760903910810104800,0.478104736328125,-0.9296636581420898,-1.473812222480774,0.4919635057449341
1760903910819794000,0.4877939453125,-0.830693244934082,-1.4718631505966187,0.5257160663604736
1760903910829483000,0.49748291015625,-0.5750579833984375,-1.5521401166915894,0.5349833965301514
1760903910839172000,0.507172119140625,-0.2643289566040039,-1.6307730674743652,0.6414860486984253
1760903910848861200,0.516861083984375,-0.001605987548828125,-1.644399881362915,0.7264721393585205
1760903910858550500,0.526550537109375,0.2525472640991211,-1.6287164688110352,0.8989278078079224
1760903910868239600,0.536239501953125,0.4348583221435547,-1.6033427715301514,1.1379858255386353
1760903910877928700,0.5459287109375,0.5206680297851562,-1.6005594730377197,1.3718836307525635
1760903910887617800,0.55561767578125,0.47106075286865234,-1.6467028856277466,1.5092488527297974
1760903910897307000,0.565306884765625,0.30809974670410156,-1.7627325057983398,1.478205680847168
1760903910906996000,0.574995849609375,0.1601400375366211,-1.6852651834487915,1.4081156253814697
1760903910916685000,0.58468505859375,0.025902748107910156,-1.4981353282928467,1.3898802995681763
1760903910926374100,0.5943740234375,-0.17523193359375,-1.3105816841125488,1.5353715419769287
1760903910936063200,0.604063232421875,-0.33486270904541016,-1.079461932182312,1.815574288368225
1760903910945752300,0.61375244140625,-0.40715980529785156,-0.8092646598815918,2.0838124752044678
1760903910955441400,0.62344140625,-0.42684459686279297,-0.5789906978607178,2.2755603790283203
1760903910965130500,0.633130615234375,-0.3762941360473633,-0.3734061121940613,2.36506986618042
1760903910974819800,0.64281982421875,-0.2566719055175781,-0.2536531984806061,2.3186278343200684
1760903910984509000,0.652509033203125,-0.11107730865478516,-0.16301758587360382,2.2721288204193115
1760903910994198000,0.662197998046875,-0.033652305603027344,-0.11610378324985504,2.2393271923065186
1760903911003887000,0.67188720703125,0.01427459716796875,-0.07083308696746826,2.2322745323181152
1760903911013576200,0.681576171875,0.0004329681396484375,-0.02768576145172119,2.2217092514038086
1760903911023265300,0.691265380859375,-0.11162090301513672,-0.02886974811553955,2.113119602203369
1760903911032954400,0.700954345703125,-0.32527637481689453,-0.04960739612579346,2.0604612827301025
1760903911042643500,0.7106435546875,-0.5638856887817383,-0.07432401180267334,2.0145344734191895
1760903911052332500,0.72033251953125,-0.7895145416259766,-0.016243338584899902,1.8915448188781738
1760903911062021600,0.730021728515625,-0.9037485122680664,0.09215641021728516,1.7834373712539673
1760903911071710700,0.739710693359375,-0.903564453125,0.24144446849822998,1.7676517963409424
1760903911081399800,0.74939990234375,-0.8611297607421875,0.3281269073486328,1.8544889688491821
1760903911091089200,0.759089111328125,-0.7299203872680664,0.4042166471481323,2.052668333053589
1760903911100778200,0.7687783203125,-0.6382007598876953,0.4070128798484802,2.229250907897949
1760903911110467300,0.77846728515625,-0.7077388763427734,0.3230612874031067,2.36972713470459
1760903911120156400,0.788156494140625,-0.9650363922119141,0.19775104522705078,2.442117691040039
1760903911129845500,0.797845458984375,-1.267160415649414,0.05367952585220337,2.375755786895752
1760903911139534600,0.80753466796875,-1.3552522659301758,-0.025947988033294678,2.0658178329467773
1760903911149223700,0.8172236328125,-1.1337194442749023,-0.22556978464126587,1.435744285583496
1760903911158912800,0.826912841796875,-0.5262470245361328,-0.37719056010246277,0.8796314001083374
1760903911168601900,0.836601806640625,0.35924243927001953,-0.4646289348602295,0.5332128405570984
1760903911178291000,0.846291015625,1.2516107559204102,-0.39250296354293823,0.5450303554534912
1760903911187980000,0.85597998046875,1.7461862564086914,-0.12945127487182617,1.0821988582611084
1760903911197669400,0.86566943359375,1.6975536346435547,0.3781960606575012,1.9459421634674072
1760903911207358500,0.8753583984375,1.3293275833129883,1.0837314128875732,2.974996566772461
1760903911217047600,0.885047607421875,0.8148832321166992,1.8401132822036743,3.951688289642334
1760903911226736600,0.894736572265625,0.3866844177246094,2.44624662399292,4.44586181640625
1760903911236425700,0.90442578125,0.19407939910888672,2.795912981033325,4.3689751625061035
1760903911246114800,0.91411474609375,0.3567171096801758,2.724569082260132,3.801133155822754
1760903911255804000,0.923803955078125,0.932124137878418,2.2077906131744385,3.108596086502075
1760903911265493000,0.933492919921875,1.6421098709106445,1.5156817436218262,2.558450222015381
1760903911275182000,0.94318212890625,2.4815025329589844,0.7462460994720459,2.1121826171875
1760903911284871200,0.95287109375,3.2088241577148438,0.16991567611694336,1.8434619903564453
1760903911294560300,0.962560302734375,3.5093002319335938,-0.14235767722129822,1.6351982355117798
1760903911304249300,0.972249267578125,3.3596038818359375,-0.1263197958469391,1.560823917388916
1760903911313938400,0.9819384765625,2.769474983215332,0.015079975128173828,1.716090440750122
1760903911323627500,0.99162744140625,1.9801273345947266,0.23053181171417236,2.018420457839966
1760903911333316600,1.001316650390625,1.040696144104004,0.4722940921783447,2.36936616897583
1760903911343005700,1.011005615234375,0.06582164764404297,0.7570067644119263,2.6736550331115723
1760903911352695000,1.020695068359375,-0.831364631652832,0.9171057939529419,2.7526369094848633
1760903911362384000,1.0303837890625,-1.676534652709961,0.9333450794219971,2.602933406829834
1760903911372073200,1.0400732421875,-2.315243721008301,0.8698825836181641,2.3773996829986572
1760903911381762300,1.04976220703125,-2.494814872741699,0.7197171449661255,2.0777950286865234
1760903911391451400,1.059451416015625,-2.3006505966186523,0.5524054765701294,1.8437273502349854
1760903911401140500,1.069140380859375,-1.8829755783081055,0.4020254611968994,1.9043879508972168
1760903911410829600,1.07882958984375,-1.3900814056396484,0.2682071924209595,2.104039192199707
1760903911420518700,1.0885185546875,-1.0067262649536133,0.2699810266494751,2.310741901397705
1760903911430207700,1.098207763671875,-0.8072261810302734,0.3422445058822632,2.4194672107696533
1760903911439896800,1.107896728515625,-0.7613096237182617,0.4410902261734009,2.4090991020202637
1760903911449586000,1.1175859375,-0.8914356231689453,0.6004866361618042,2.4648497104644775
1760903911459275000,1.12727490234375,-1.0492639541625977,0.7736060619354248,2.553798198699951
1760903911468964000,1.136964111328125,-1.016495704650879,0.7894967794418335,2.4726598262786865
1760903911478653200,1.146653076171875,-0.884770393371582,0.6350234746932983,2.264464855194092
1760903911488342300,1.15634228515625,-0.7306966781616211,0.47272777557373047,2.0178701877593994
1760903911498031400,1.16603125,-0.5212106704711914,0.35490095615386963,1.7358863353729248
1760903911507720400,1.175720458984375,-0.3184328079223633,0.25831615924835205,1.570536494255066
1760903911517409500,1.185409423828125,-0.14612770080566406,0.22203350067138672,1.5184893608093262
1760903911527098600,1.1950986328125,0.0053386688232421875,0.22294139862060547,1.5903184413909912
1760903911536787700,1.20478759765625,0.12665176391601562,0.41253066062927246,1.7477363348007202
1760903911546476800,1.214476806640625,0.1187143325805664,0.7871049642562866,2.013740062713623
1760903911556166000,1.224165771484375,0.11096858978271484,1.162262201309204,2.2650210857391357
1760903911565855000,1.23385498046875,0.1082906723022461,1.3706703186035156,2.368156671524048
1760903911575544000,1.2435439453125,0.05374622344970703,1.4990136623382568,2.385312557220459
1760903911585233200,1.253233154296875,0.05212688446044922,1.5953238010406494,2.3117220401763916
1760903911594922200,1.262922119140625,0.13622760772705078,1.5880582332611084,2.073265790939331
1760903911604611300,1.272611328125,0.12513065338134766,1.5298166275024414,1.8238133192062378
1760903911614300700,1.28230078125,0.024351119995117188,1.4217984676361084,1.6492077112197876
1760903911623989500,1.291989501953125,-0.14178943634033203,1.2944419384002686,1.5257165431976318
1760903911633678800,1.301678955078125,-0.3255147933959961,1.2067219018936157,1.4149389266967773
1760903911643367700,1.31136767578125,-0.5269203186035156,1.14595365524292,1.3259166479110718
1760903911653057000,1.32105712890625,-0.6131429672241211,1.1032956838607788,1.262526512145996
1760903911662745900,1.330745849609375,-0.6040630340576172,1.1299799680709839,1.1932079792022705
1760903911672435200,1.340435302734375,-0.4860696792602539,1.1906367540359497,1.1670805215835571
1760903911682124000,1.3501240234375,-0.2931089401245117,1.316767930984497,1.2686374187469482
1760903911691813400,1.3598134765625,-0.09703254699707031,1.4752192497253418,1.5039565563201904
1760903911701502200,1.369502197265625,0.1589527130126953,1.676487684249878,1.8097482919692993
1760903911711191600,1.379191650390625,0.4553337097167969,1.7593109607696533,1.9755245447158813
1760903911720880400,1.38888037109375,0.6778936386108398,1.7815961837768555,2.0311660766601562
1760903911730569700,1.39856982421875,0.851165771484375,1.7946746349334717,1.9613488912582397
1760903911740258600,1.408258544921875,1.0612783432006836,1.7443583011627197,1.7592871189117432
1760903911749948000,1.417947998046875,1.2179908752441406,1.6673109531402588,1.5761841535568237
1760903911759636700,1.42763671875,1.3930377960205078,1.539308786392212,1.4411519765853882
1760903911769325800,1.437325927734375,1.619588851928711,1.3887624740600586,1.3023372888565063
1760903911779015000,1.447014892578125,1.9116640090942383,1.2290425300598145,1.154147982597351
1760903911788704000,1.4567041015625,2.121823310852051,1.0679773092269897,1.051579475402832
1760903911798393000,1.46639306640625,2.1939029693603516,0.9899935722351074,1.1034893989562988
1760903911808082200,1.476082275390625,2.304661750793457,0.9282816648483276,1.2384870052337646
1760903911817771300,1.485771240234375,2.486776351928711,0.7756930589675903,1.584280252456665
1760903911827460400,1.49546044921875,2.4732542037963867,0.6840527057647705,2.0750200748443604
1760903911837149400,1.5051494140625,2.29366397857666,0.5902223587036133,2.407407760620117
1760903911846838500,1.514838623046875,2.3675003051757812,0.19034838676452637,2.2902941703796387
1760903911856527600,1.524527587890625,2.7321395874023438,0.5510796308517456,0.3112025856971741
1760903911866216700,1.534216796875,1.6942167282104492,1.632811427116394,-1.664224624633789
1760903911875905800,1.54390576171875,-0.6010599136352539,0.4095066785812378,-0.268958181142807
1760903911885595000,1.553594970703125,-1.5951604843139648,0.061849355697631836,-0.3469609022140503
1760903911895284000,1.563283935546875,-1.4775066375732422,0.3508201837539673,-1.5921761989593506
1760903911904973000,1.57297314453125,-0.8587818145751953,-0.06535029411315918,-1.4188867807388306
1760903911914662100,1.582662109375,-0.8649253845214844,-1.335554838180542,-0.13623127341270447
1760903911924351200,1.592351318359375,-0.2835960388183594,-2.0532379150390625,0.860808789730072
1760903911934040300,1.602040283203125,1.1120328903198242,-1.9554349184036255,1.3058600425720215
1760903911943729400,1.6117294921875,1.844437599182129,-1.2834311723709106,1.2243531942367554
1760903911953418500,1.62141845703125,1.9089393615722656,-0.5447133183479309,1.2333731651306152
1760903911963107600,1.631107666015625,1.457284927368164,-0.6197459101676941,2.2550082206726074
1760903911972796700,1.640796630859375,1.1109743118286133,-0.1381990909576416,1.6603283882141113
1760903911982485800,1.65048583984375,0.5455989837646484,0.41065311431884766,0.7130002975463867
1760903911992174800,1.6601748046875,-0.7093410491943359,0.3450043201446533,0.6826000809669495
1760903912001864000,1.669864013671875,-1.8706960678100586,0.37846338748931885,0.4566613435745239
1760903912011553000,1.679552978515625,-2.5067734718322754,0.5794854164123535,-0.23261691629886627
1760903912021241900,1.689241943359375,-2.3879384994506836,0.571990966796875,-1.187453031539917
1760903912030931000,1.698930908203125,-2.013568878173828,0.47198033332824707,-2.177074909210205
1760903912040620000,1.7086201171875,-1.2375574111938477,0.42264604568481445,-3.1060729026794434
1760903912050309000,1.71830908203125,1.126633644104004,1.4817384481430054,-4.482221603393555
1760903912059998200,1.727998291015625,1.5978994369506836,1.317913293838501,-4.028482437133789
1760903912069687300,1.737687255859375,0.7788591384887695,0.3166353702545166,-2.7517404556274414
1760903912079376400,1.74737646484375,-0.5817642211914062,-0.7660825252532959,-1.0571821928024292
1760903912089065500,1.7570654296875,-3.046896457672119,-2.1951918601989746,1.3891035318374634
1760903912098754600,1.766754638671875,-4.092663764953613,-2.620605945587158,3.2455427646636963
1760903912108443600,1.776443603515625,-1.789834976196289,-1.3887879848480225,2.6936044692993164
1760903912118132700,1.7861328125,-0.03912067413330078,-0.5440248250961304,1.694472074508667
1760903912127821800,1.79582177734375,0.2376384735107422,-0.5861958265304565,1.3407719135284424
1760903912137510700,1.8055107421875,-0.10181522369384766,-1.002821683883667,1.1971440315246582
1760903912147199700,1.81519970703125,-0.41375732421875,-1.5564271211624146,0.8257855176925659
1760903912156888800,1.824888916015625,-0.6097650527954102,-1.9608464241027832,0.31654155254364014
1760903912166578000,1.834577880859375,-0.8248300552368164,-1.9472582340240479,-0.1370924711227417
1760903912176267000,1.84426708984375,-0.9250116348266602,-1.8846994638442993,-0.6589535474777222
1760903912185956000,1.8539560546875,-1.0137948989868164,-1.6625365018844604,-0.9488464593887329
1760903912195645200,1.863645263671875,-1.213374137878418,-1.3550268411636353,-1.1428546905517578
1760903912205334300,1.873334228515625,-1.4693574905395508,-0.8503193259239197,-1.0901833772659302
1760903912215023400,1.8830234375,-1.6279821395874023,-0.2103954553604126,-0.6764744520187378
1760903912224712400,1.89271240234375,-1.3561515808105469,0.1551429033279419,-0.17110145092010498
1760903912234401300,1.9024013671875,-0.8139076232910156,0.3575681447982788,-0.11131554841995239
1760903912244090400,1.91209033203125,-0.5555429458618164,-0.005235433578491211,-0.035535722970962524
1760903912253779500,1.921779541015625,-0.09379196166992188,-0.3441946506500244,0.2551831007003784
1760903912263468500,1.931468505859375,0.45354270935058594,-0.38276684284210205,0.3444085121154785
1760903912273157600,1.94115771484375,0.6168680191040039,-0.032588839530944824,0.35601717233657837
1760903912282846700,1.9508466796875,-0.3501901626586914,0.3755844831466675,0.1691364049911499
1760903912292535800,1.960535888671875,-0.9538812637329102,0.26709210872650146,-0.043277282267808914
1760903912302225000,1.970224853515625,-0.46385955810546875,-0.14824128150939941,-0.21854373812675476
1760903912311913700,1.979913818359375,-0.04287528991699219,-0.20060765743255615,-0.3164701461791992
1760903912321602800,1.989602783203125,0.2715311050415039,-0.3304421901702881,-0.3893383741378784
1760903912331292000,1.9992919921875,0.9331340789794922,-0.505747377872467,-0.27557891607284546
1760903912340981000,2.00898095703125,1.4027605056762695,-0.3488575220108032,-0.15870392322540283
1760903912350670000,2.018670166015625,1.2100238800048828,0.005889773368835449,0.044869035482406616
1760903912360359200,2.028359130859375,1.0627527236938477,-0.20908629894256592,0.1736578345298767
1760903912370048000,2.038048095703125,0.5501937866210938,-0.33823561668395996,0.3418123722076416
1760903912379737000,2.047737060546875,0.2923927307128906,-0.4450812339782715,0.26359838247299194
1760903912389426200,2.05742626953125,0.5309104919433594,-0.5381811857223511,0.021395623683929443
1760903912399115300,2.067115234375,0.7534093856811523,-0.6219176054000854,-0.12323755025863647
1760903912408804400,2.076804443359375,0.9447183609008789,-0.7885999083518982,0.18049025535583496
1760903912418493400,2.086493408203125,1.1614627838134766,-0.7866134643554688,0.6315819621086121
1760903912428182300,2.096182373046875,1.3322277069091797,-0.5707837343215942,0.9874371886253357
1760903912437871400,2.105871337890625,1.5963611602783203,-0.49611639976501465,1.3148669004440308
1760903912447560400,2.115560546875,1.7498464584350586,-0.598418116569519,1.6383837461471558
1760903912457249500,2.12524951171875,1.6033048629760742,-0.7578853964805603,1.8377405405044556
1760903912466938600,2.134938720703125,1.4485435485839844,-1.0787816047668457,1.8568506240844727
1760903912476627700,2.144627685546875,1.3516111373901367,-1.2692902088165283,1.7375997304916382
1760903912486316500,2.154316650390625,1.5309324264526367,-1.454933762550354,1.1750577688217163
1760903912496005600,2.164005615234375,1.7042045593261719,-1.7061076164245605,0.6061933636665344
1760903912505694700,2.17369482421875,1.4943037033081055,-1.805030107498169,0.6571404933929443
1760903912515383800,2.1833837890625,1.0988101959228516,-1.2415969371795654,1.2306679487228394
1760903912525073000,2.193072998046875,1.230367660522461,-2.004256248474121,1.4209325313568115
1760903912534762000,2.202761962890625,1.115762710571289,-2.4645612239837646,1.1493017673492432
1760903912544450800,2.212450927734375,1.0036077499389648,-2.5137240886688232,0.207482248544693
1760903912554140000,2.222139892578125,0.8499641418457031,-2.817858934402466,-0.42652130126953125
1760903912563829000,2.2318291015625,0.4824819564819336,-2.2146553993225098,-0.2722907066345215
1760903912573518000,2.24151806640625,0.3306245803833008,-1.5290815830230713,0.3605898320674896
1760903912583207200,2.251207275390625,-0.02160358428955078,-0.8586660623550415,0.8747984170913696
1760903912592896300,2.260896240234375,-0.4501638412475586,-0.8855315446853638,2.1531264781951904
1760903912602585000,2.270585205078125,-0.6261663436889648,-0.703357994556427,2.7027478218078613
1760903912612274200,2.280274169921875,-0.4217500686645508,-0.44264161586761475,2.371823310852051
1760903912621963300,2.28996337890625,0.3437528610229492,-0.46129709482192993,1.9212653636932373
1760903912631652400,2.29965234375,1.2312116622924805,-0.5267187356948853,1.5767560005187988
1760903912641341200,2.309341064453125,1.9604682922363281,-0.5560864806175232,1.3342156410217285
1760903912651030300,2.3190302734375,2.218569755554199,-0.5323393940925598,0.865964412689209
1760903912660719400,2.32871923828125,1.9742965698242188,-0.6105547547340393,0.6700170040130615
1760903912670408400,2.338408447265625,1.520390510559082,-0.8099262714385986,0.7138398289680481
1760903912680097500,2.34809765625,0.9047822952270508,-0.8043676018714905,0.9195486307144165
1760903912689786400,2.357786376953125,-0.025827407836914062,-0.8939857482910156,0.8845590353012085
1760903912699475500,2.367475341796875,-0.6374282836914062,-1.098022699356079,0.619216799736023
1760903912709164500,2.37716455078125,-1.1326103210449219,-0.9872775673866272,0.0978773832321167
1760903912718853600,2.386853515625,-1.2311334609985352,-0.9915308952331543,0.740249752998352
1760903912728542500,2.39654248046875,-0.9872226715087891,-0.514146089553833,1.1617622375488281
1760903912738231600,2.4062314453125,-1.5435504913330078,-0.10098803043365479,0.9645739197731018
1760903912747920600,2.415920654296875,-1.5151786804199219,-0.9601183533668518,-0.4652653932571411
1760903912757609700,2.425609619140625,-0.8320522308349609,-0.8731547594070435,-0.94588303565979
1760903912767298600,2.435298583984375,0.37204742431640625,-0.7587597370147705,-1.0784307718276978
1760903912776987600,2.444987548828125,1.4393510818481445,-0.8459162712097168,-1.307586669921875
1760903912786676700,2.4546767578125,2.2484512329101562,-0.5559951066970825,-1.0004500150680542
1760903912796365800,2.46436572265625,3.4478302001953125,-0.42877817153930664,-0.351338267326355
1760903912806054700,2.4740546875,4.395740509033203,-0.2592102289199829,0.7391461133956909
1760903912815743700,2.48374365234375,4.262406349182129,-0.06207382678985596,1.5029101371765137
1760903912825432800,2.493432861328125,3.219022750854492,0.158522367477417,1.9124029874801636
1760903912835122000,2.503121826171875,1.9319276809692383,0.636847972869873,2.2951254844665527
1760903912844810800,2.512810791015625,0.6388912200927734,0.7657184600830078,2.0347917079925537
1760903912854499800,2.522499755859375,-0.48224735260009766,0.3423426151275635,1.415428638458252
1760903912864189000,2.53218896484375,-1.76155424118042,-0.04984450340270996,0.5660159587860107
1760903912873878000,2.5418779296875,-3.004993438720703,-0.4609661102294922,0.005906462669372559
1760903912883566800,2.55156689453125,-4.068146705627441,-0.33322834968566895,0.2879832983016968
1760903912902945000,2.570945068359375,-5.796677589416504,-0.26413941383361816,-0.8586784601211548
1760903912912634000,2.580634033203125,-5.960411071777344,-0.6595263481140137,-1.0404150485992432
1760903912922323000,2.590322998046875,-5.6519856452941895,-0.6341538429260254,-1.2357628345489502
1760903912932012000,2.600011962890625,-5.1616010665893555,-0.6118471622467041,-1.6548150777816772
1760903912941701000,2.609701171875,-5.089162826538086,-0.1509537696838379,-1.4766130447387695
1760903912951390200,2.61939013671875,-3.358574867248535,0.0015552043914794922,-1.325760006904602
1760903912961079000,2.6290791015625,-1.0256729125976562,-1.1319180727005005,-1.4789562225341797
1760903912970768100,2.63876806640625,0.18449974060058594,-0.6814465522766113,-0.3718124032020569
1760903912980457200,2.648457275390625,0.07702255249023438,-1.266266942024231,1.8610029220581055
1760903912990146300,2.658146240234375,-0.14298439025878906,-1.0130696296691895,2.832883358001709
1760903912999835100,2.667835205078125,-0.4682788848876953,-0.00812530517578125,2.346074104309082
1760903913019213300,2.68721337890625,-0.1372060775756836,0.5823049545288086,0.9613329172134399
1760903913038591200,2.70659130859375,0.6951684951782227,-0.281080961227417,-0.2772957682609558
1760903913048280300,2.7162802734375,0.488311767578125,-0.7384834289550781,-0.47258806228637695
1760903913067658200,2.735658203125,-0.31946754455566406,-0.6666779518127441,-0.21815496683120728
1760903913077347300,2.745347412109375,-0.020296096801757812,-0.22589898109436035,0.1510941982269287
1760903913087036400,2.755036376953125,0.5638179779052734,-0.1455214023590088,0.1278788447380066
1760903913096725200,2.764725341796875,1.0327739715576172,-0.17497563362121582,0.02793407440185547
1760903913106414300,2.774414306640625,1.4645185470581055,-0.17901968955993652,-0.1370781660079956
1760903913116103400,2.784103515625,1.8316898345947266,-0.18018412590026855,-0.26662200689315796
1760903913125792300,2.793792236328125,2.092562675476074,-0.09527850151062012,-0.16031062602996826
1760903913135481300,2.8034814453125,2.3105649948120117,-0.14216065406799316,0.04128998517990112
1760903913145170400,2.81317041015625,2.4059019088745117,-0.26125550270080566,0.4638049900531769
1760903913154859500,2.822859619140625,2.5040550231933594,-0.4824059009552002,0.8159698843955994
1760903913164548400,2.83254833984375,2.323841094970703,-0.7651944160461426,1.1332588195800781
1760903913174237400,2.842237548828125,1.688572883605957,-1.013227939605713,1.4304733276367188
1760903913183926500,2.851926513671875,0.730860710144043,-1.0555510520935059,1.6321098804473877
1760903913193615600,2.86161572265625,-0.28009891510009766,-0.8531391620635986,1.7529630661010742
1760903913203304400,2.871304443359375,-0.7379932403564453,-0.5485608577728271,1.6655752658843994
1760903913212993500,2.88099365234375,-0.5008878707885742,-0.18100333213806152,1.1620296239852905
1760903913222682600,2.8906826171875,-0.09865665435791016,0.0970463752746582,0.33341947197914124
1760903913232371500,2.900371337890625,0.13350296020507812,0.34670019149780273,-0.6025856733322144
1760903913242060500,2.910060546875,0.1245279312133789,0.4972658157348633,-1.4752836227416992
1760903913251749600,2.91974951171875,0.2492074966430664,0.31701016426086426,-2.411170482635498
1760903913261438500,2.9294384765625,0.8936557769775391,-0.13335132598876953,-3.045522689819336
1760903913271127600,2.93912744140625,1.2407007217407227,-0.9330093860626221,-3.1142005920410156
1760903913280816600,2.948816650390625,1.3577899932861328,-1.205491304397583,-2.219740867614746
1760903913290505700,2.958505615234375,0.9513349533081055,-0.7164547443389893,-1.1640496253967285
1760903913300194600,2.968194580078125,0.24114131927490234,-0.025157690048217773,-0.2930469512939453
1760903913309883600,2.977883544921875,-0.5495176315307617,0.6183526515960693,0.38087475299835205
1760903913319572500,2.987572509765625,-1.5237174034118652,1.0773265361785889,0.6304810643196106
1760903913329261600,2.997261474609375,-2.6045846939086914,1.170776128768921,0.6902217268943787
1760903913338950700,3.00695068359375,-3.893217086791992,1.022475004196167,1.359536051750183
1760903913348639700,3.0166396484375,-4.692629337310791,0.39411187171936035,2.037611722946167
1760903913358328600,3.02632861328125,-4.623266696929932,0.45446324348449707,0.8385723829269409
1760903913368017700,3.036017578125,-3.482509136199951,0.4588048458099365,-0.9240093231201172
1760903913377706800,3.045706787109375,-1.528398036956787,-0.19452500343322754,-1.8490900993347168
1760903913387395600,3.0553955078125,0.24483108520507812,-1.2641799449920654,-1.9079759120941162
1760903913397084700,3.065084716796875,1.197256088256836,-1.7951284646987915,-1.4834635257720947
1760903913406773800,3.074773681640625,1.8968744277954102,-1.757995843887329,-0.9318559169769287
1760903913416462600,3.084462646484375,2.378781318664551,-1.1237385272979736,-0.1836329698562622
1760903913426151700,3.094151611328125,2.438091278076172,-0.4284210205078125,0.4825075566768646
1760903913435840800,3.1038408203125,2.1178998947143555,0.07254195213317871,0.9878668189048767
1760903913445529600,3.113529541015625,1.5704278945922852,0.3740234375,1.1897578239440918
1760903913455218700,3.12321875,0.6702384948730469,0.47654294967651367,0.9776139259338379
1760903913464907800,3.13290771484375,-0.3357973098754883,0.4337160587310791,0.5550855398178101
1760903913474596600,3.1425966796875,-1.162856101989746,0.3454267978668213,0.12741002440452576
1760903913484285700,3.15228564453125,-1.6024808883666992,0.2662487030029297,-0.24128323793411255
1760903913493974800,3.161974853515625,-1.6897006034851074,0.14474058151245117,-0.4992997646331787
1760903913503663600,3.17166357421875,-1.5922961235046387,0.03301429748535156,-0.5735296010971069
1760903913513352700,3.181352783203125,-1.381350040435791,-0.11929154396057129,-0.6813874840736389
1760903913523041800,3.191041748046875,-1.3573575019836426,-0.15595078468322754,-0.7523114681243896
1760903913532730600,3.200730712890625,-1.4678430557250977,0.03289532661437988,-0.8280072212219238
1760903913542419700,3.210419677734375,-1.3405776023864746,0.399658203125,-0.6480759978294373
1760903913552108800,3.22010888671875,-0.8567514419555664,0.6202781200408936,-0.16559737920761108
1760903913561797600,3.229797607421875,-0.2224578857421875,0.5724954605102539,0.26779043674468994
1760903913571486700,3.23948681640625,0.328277587890625,0.5292398929595947,0.3489990532398224
1760903913581175800,3.24917578125,0.739750862121582,0.400815486907959,0.35398179292678833
1760903913590864600,3.25886474609375,0.7275457382202148,0.14412569999694824,0.32068103551864624
1760903913600553700,3.2685537109375,0.1456460952758789,0.22395968437194824,0.23540395498275757
1760903913610242800,3.278242919921875,-0.4224691390991211,0.6012318134307861,0.060130804777145386
1760903913619931600,3.287931640625,-1.5816850662231445,1.1501555442810059,-0.1174866259098053
1760903913629620700,3.297620849609375,-2.05403995513916,1.2335619926452637,-0.05928531289100647
1760903913639309600,3.3073095703125,-1.3251457214355469,0.8468883037567139,-0.3800882399082184
1760903913648998700,3.31699853515625,-0.13591480255126953,0.35948777198791504,-0.5700002312660217
1760903913658687700,3.326687744140625,0.7409038543701172,0.10652446746826172,-0.6840516328811646
1760903913668376600,3.33637646484375,1.1259078979492188,-0.03001713752746582,-0.456396222114563
1760903913678065700,3.346065673828125,0.7006511688232422,0.044798851013183594,-0.18980947136878967
1760903913687754800,3.355754638671875,-0.2189311981201172,0.33638739585876465,-0.16558706760406494
1760903913697443600,3.365443603515625,-0.9741611480712891,0.673410177230835,-0.31721463799476624
1760903913707132700,3.375132568359375,-1.3227577209472656,0.908071756362915,-0.3843201994895935
1760903913716821800,3.38482177734375,-1.1941566467285156,1.0115509033203125,-0.4068790078163147
1760903913726510600,3.394510498046875,-0.6029233932495117,0.9969601631164551,-0.3633466064929962
1760903913736199700,3.40419970703125,0.2791318893432617,0.9012565612792969,-0.4122961461544037
1760903913745888500,3.413888427734375,1.1272783279418945,0.7436714172363281,-0.49141204357147217
1760903913755577600,3.42357763671875,1.6454858779907227,0.5161163806915283,-0.5390416383743286
1760903913765266700,3.4332666015625,1.8959369659423828,0.2640960216522217,-0.4299321174621582
1760903913774955500,3.44295556640625,1.878636360168457,0.19002103805541992,-0.35377222299575806
1760903913784644600,3.45264453125,1.483804702758789,0.31017303466796875,-0.38866326212882996
1760903913794333700,3.462333740234375,1.0798044204711914,0.6147873401641846,-0.39289307594299316
1760903913813711600,3.481711669921875,0.8432979583740234,0.8823096752166748,-0.5340218544006348
1760903913823400700,3.491400634765625,0.9927968978881836,0.8047451972961426,-0.6864404082298279
1760903913833089500,3.501089599609375,1.216461181640625,0.704242467880249,-0.6480545997619629
1760903913842778600,3.510778564453125,1.4759254455566406,0.6725895404815674,-0.44587528705596924
1760903913852467700,3.5204677734375,1.7704544067382812,0.7642481327056885,-0.25029247999191284
1760903913862156500,3.530156494140625,1.7978620529174805,0.7013816833496094,-0.11342892050743103
1760903913871845600,3.539845703125,2.0218019485473633,0.7065882682800293,0.05553692579269409
1760903913881534500,3.549534423828125,1.9596939086914062,0.6363942623138428,-0.008727431297302246
1760903913891223600,3.5592236328125,1.750004768371582,0.5313425064086914,-0.033580482006073
1760903913900912600,3.56891259765625,1.4927082061767578,0.5748796463012695,-0.024352729320526123
1760903913910601500,3.5786015625,1.139998435974121,0.7529265880584717,0.08926284313201904
1760903913920290600,3.58829052734375,0.8588438034057617,0.9042017459869385,0.18113237619400024
1760903913929979400,3.5979794921875,0.26256847381591797,0.8794906139373779,-0.14256435632705688
1760903913939668500,3.60766845703125,-0.04186439514160156,0.6519913673400879,-0.6461114883422852
1760903913949357600,3.617357666015625,0.30265045166015625,0.3775625228881836,-1.0074615478515625
1760903913959046400,3.62704638671875,1.132767677307129,0.016286134719848633,-0.9155985116958618
1760903913968735500,3.636735595703125,2.177122116088867,-0.37117981910705566,-0.37188291549682617
1760903913978424600,3.646424560546875,3.2655515670776367,-0.5662384033203125,-0.11029207706451416
1760903913988113400,3.656113525390625,3.4115657806396484,-0.9535150527954102,-0.1009947657585144
1760903913997802500,3.665802490234375,2.7519989013671875,-1.5001813173294067,-0.13343209028244019
1760903914007491300,3.6754912109375,1.7172412872314453,-2.0401625633239746,-0.07815176248550415
1760903914017180400,3.685180419921875,0.5199365615844727,-2.4949402809143066,0.05927926301956177
1760903914026869500,3.694869384765625,-0.729736328125,-3.2558815479278564,-0.06776344776153564
1760903914036558300,3.704558349609375,-1.4234237670898438,-3.728376865386963,-0.16110730171203613
1760903914046247400,3.714247314453125,-1.534306526184082,-3.139669895172119,-0.2372894585132599
1760903914055936500,3.7239365234375,-1.718061923980713,-1.8213372230529785,-0.3178541362285614
1760903914065625300,3.733625244140625,-1.9363417625427246,-0.696425199508667,-0.42327409982681274
1760903914075314400,3.743314453125,-2.045060634613037,-0.17653751373291016,-0.4879183769226074
1760903914085003300,3.753003173828125,-2.1288094520568848,-0.9129829406738281,-0.8999521136283875
1760903914094692400,3.7626923828125,-1.7713031768798828,-1.2694029808044434,-0.8113471865653992
1760903914104381400,3.77238134765625,-0.9392642974853516,-1.3224576711654663,-0.4210844039916992
1760903914114070300,3.7820703125,-0.37675952911376953,-1.4551442861557007,0.02028544992208481
1760903914123759400,3.79175927734375,-0.2007436752319336,-1.57132887840271,0.01627274416387081
1760903914133448200,3.8014482421875,-0.1848917007446289,-1.759395956993103,0.019009478390216827
1760903914143137300,3.81113720703125,-0.18053245544433594,-1.795365810394287,0.051855139434337616
1760903914152826400,3.820826416015625,-0.2306079864501953,-1.531204104423523,0.10065597295761108
1760903914172204300,3.840204345703125,-0.34631919860839844,-0.3457033634185791,-0.22452881932258606
1760903914181893000,3.84989306640625,-0.39833545684814453,0.3363640308380127,-0.49016273021698
1760903914191582200,3.859582275390625,-0.4819755554199219,0.7207396030426025,-0.7100266218185425
1760903914201271300,3.869271240234375,-0.6545677185058594,0.5869612693786621,-0.7551112174987793
1760903914210960100,3.878960205078125,-0.9730844497680664,0.07364273071289062,-0.46305352449417114
1760903914220649200,3.888649169921875,-1.3129682540893555,-0.40315723419189453,-0.07529860734939575
1760903914230338000,3.898338134765625,-1.516700267791748,-0.7620666027069092,0.3525233268737793
1760903914249716200,3.91771630859375,-0.819854736328125,-0.029200077056884766,0.587765097618103
1760903914259405000,3.927405029296875,-0.2549285888671875,0.7309970855712891,0.17255884408950806
1760903914269094100,3.93709423828125,-0.30191802978515625,1.2777001857757568,-0.3687260150909424
1760903914288472000,3.95647216796875,-1.9444794654846191,0.8389616012573242,-1.2144713401794434
1760903914298161200,3.9661611328125,-2.639026641845703,-0.5180094242095947,-1.8438860177993774
1760903914307850000,3.97585009765625,-3.3529953956604004,-1.6068122386932373,-1.5146100521087646
1760903914317539000,3.9855390625,-3.4430713653564453,-1.718292474746704,-0.8871985673904419
1760903914327228000,3.995227783203125,-2.64614200592041,-0.8900918960571289,0.2395457625389099
1760903914336917000,4.0049169921875,-1.0596723556518555,-0.11301422119140625,1.1626343727111816
1760903914346606000,4.014606201171875,0.41591930389404297,0.6819539070129395,1.6185684204101562
1760903914356295000,4.024294921875,1.5445518493652344,1.2818305492401123,1.6785094738006592
1760903914365984000,4.03398388671875,2.1848535537719727,1.5223126411437988,1.6451003551483154
1760903914375672800,4.0436728515625,2.41904354095459,1.738234043121338,1.7509827613830566
1760903914385362000,4.05336181640625,2.2762393951416016,1.653874158859253,1.801424503326416
1760903914395050800,4.06305078125,1.8862314224243164,1.2749145030975342,1.749559998512268
1760903914404739800,4.07273974609375,1.5368289947509766,1.0112292766571045,1.862974762916565
1760903914414429000,4.082428955078125,1.5113649368286133,0.850355863571167,2.162280559539795
1760903914424117800,4.09211767578125,1.9398822784423828,0.7200446128845215,2.331399917602539
1760903914433806800,4.101806884765625,2.5120162963867188,0.718496561050415,1.917518138885498
1760903914443496000,4.111495849609375,2.423358917236328,0.984015703201294,0.18554717302322388
1760903914453184800,4.121184814453125,1.0222101211547852,1.6643695831298828,-3.1973767280578613
1760903914462873900,4.130873779296875,-0.7368860244750977,1.7586498260498047,-4.976039886474609
1760903914472562700,4.140562744140625,-2.1327714920043945,1.0060901641845703,-2.746950149536133
1760903914482251800,4.150251708984375,-2.6971731185913086,0.22332119941711426,0.2321150302886963
1760903914491940600,4.159940673828125,-2.0180678367614746,-0.36747288703918457,0.6695163249969482
1760903914501629700,4.169629638671875,-1.3003416061401367,-0.4631161689758301,0.6346249580383301
1760903914511318800,4.17931884765625,-0.6796903610229492,0.03451037406921387,-0.4273998737335205
1760903914521007600,4.189007568359375,0.3211793899536133,0.356503963470459,-0.5524501800537109
1760903914530696700,4.19869677734375,1.2346572875976562,0.5997133255004883,0.2962440252304077
1760903914540385500,4.208385498046875,2.061558723449707,1.0074284076690674,1.2820388078689575
1760903914550074600,4.21807470703125,2.5083627700805664,1.2942759990692139,1.9921680688858032
1760903914559763700,4.227763671875,2.872802734375,1.53975510597229,1.617527723312378
1760903914569452500,4.23745263671875,2.627627372741699,1.6466474533081055,1.2440391778945923
1760903914579141600,4.2471416015625,1.5922718048095703,1.516101360321045,1.1080485582351685
1760903914588830700,4.256830810546875,0.7724847793579102,0.8194863796234131,0.4992866516113281
1760903914598519600,4.26651953125,0.3897876739501953,-0.028879404067993164,-0.16946029663085938
1760903914617897500,4.2858974609375,0.8183889389038086,-1.3921289443969727,-1.242842674255371
1760903914627586600,4.295586669921875,1.969313621520996,-1.724122405052185,-1.619112253189087
1760903914646964500,4.314964599609375,3.4768781661987305,-1.4767870903015137,-0.17366385459899902
1760903914656653600,4.324653564453125,3.3514223098754883,-0.7062649726867676,0.8827426433563232
1760903914666342400,4.33434228515625,2.5205087661743164,-0.0638267993927002,1.597024917602539
1760903914676031500,4.344031494140625,-2.163417339324951,1.09012770652771,1.3747363090515137
1760903914685720600,4.353720458984375,-6.5866570472717285,1.4576506614685059,0.2114412784576416
1760903914695409400,4.363409423828125,-2.6204710006713867,-0.5686771869659424,0.32524943351745605
1760903914705098500,4.373098388671875,0.7971248626708984,-1.4971153736114502,-0.8143649101257324
1760903914714787300,4.382787353515625,1.4899234771728516,-1.5196223258972168,-1.6856403350830078
1760903914724476400,4.392476318359375,0.657465934753418,-1.8125684261322021,-1.398421287536621
1760903914734165500,4.40216552734375,-0.6544251441955566,-1.9610564708709717,-1.0530710220336914
1760903914743854300,4.411854248046875,-1.7443742752075195,-1.4704563617706299,-0.9417724609375
1760903914753543400,4.42154345703125,-2.1155142784118652,-0.8937363624572754,-0.29651641845703125
1760903914763232500,4.431232421875,-1.6586790084838867,-0.5621163845062256,0.5902094841003418
1760903914772921300,4.44092138671875,-1.0164365768432617,-0.5102343559265137,0.8877084255218506
1760903914782610400,4.4506103515625,-0.4381861686706543,-0.6728060245513916,0.4406399726867676
1760903914792299500,4.460299560546875,-0.011307716369628906,-1.081575870513916,-0.18307828903198242
1760903914801988400,4.46998828125,0.4965076446533203,-1.6248939037322998,-0.7943100929260254
1760903914811677400,4.479677490234375,1.1168460845947266,-1.8292465209960938,-1.217937707901001
1760903914821366300,4.4893662109375,1.6132307052612305,-1.6000816822052002,-1.2851922512054443
1760903914831055400,4.499055419921875,2.2417869567871094,-0.8943428993225098,-0.9775197505950928
1760903914840744400,4.508744384765625,3.2363414764404297,-0.17725133895874023,-0.8103382587432861
1760903914850433300,4.518433349609375,3.041539192199707,0.06777310371398926,-0.367279052734375
1760903914860122400,4.528122314453125,2.7064170837402344,-0.3554999828338623,0.5214338302612305
1760903914869811500,4.5378115234375,1.7351207733154297,-0.4176309108734131,0.9455060958862305
1760903914879500300,4.547500244140625,1.3369884490966797,-0.7763767242431641,0.819364070892334
1760903914889189400,4.557189453125,1.146061897277832,-0.7944891452789307,0.16965627670288086
1760903914898878200,4.566878173828125,0.9040517807006836,-0.5653519630432129,-0.05290079116821289
1760903914908567300,4.5765673828125,0.7971992492675781,-0.29692578315734863,-0.026253461837768555
1760903914918256400,4.58625634765625,0.6345529556274414,-0.13221526145935059,0.475574254989624
1760903914927945500,4.595945556640625,-0.05881023406982422,-0.4668753147125244,0.7843806743621826
1760903914937634300,4.60563427734375,-0.6784648895263672,-0.39208316802978516,1.0451030731201172
1760903914947323400,4.615323486328125,-1.225999355316162,-0.5519485473632812,0.7099003791809082
1760903914957012200,4.62501220703125,-2.387104034423828,-1.5785292387008667,0.5070550441741943
1760903914966701300,4.634701416015625,-5.248208045959473,-3.2966971397399902,0.06811332702636719
1760903914976390400,4.644390380859375,-5.8763275146484375,-3.660879135131836,-1.194246768951416
1760903914986079200,4.654079345703125,-4.345939636230469,-2.236096143722534,-3.005178689956665
1760903914995768300,4.663768310546875,-3.093559741973877,-1.055862545967102,-3.732034683227539
1760903915005457400,4.67345751953125,-2.236337184906006,-0.29575324058532715,-3.0212223529815674
1760903915015146200,4.683146240234375,-1.8127384185791016,0.12868118286132812,-1.268147587776184
1760903915024835300,4.69283544921875,-1.4644174575805664,0.45991086959838867,0.5570865273475647
1760903915034524400,4.7025244140625,-0.8979988098144531,0.8516116142272949,1.8216276168823242
1760903915044213200,4.712213134765625,0.009002685546875,1.211922526359558,2.563077688217163
1760903915053902300,4.72190234375,1.064955711364746,1.4044082164764404,2.786672353744507
1760903915073280300,4.7412802734375,3.0036420822143555,0.7156661152839661,1.8104193210601807
1760903915082969300,4.75096923828125,2.7489566802978516,-0.3609945774078369,1.3077765703201294
1760903915092658400,4.760658447265625,1.8062610626220703,-1.53944730758667,0.9836618900299072
1760903915102347300,4.77034716796875,3.1652069091796875,-3.0931003093719482,-0.06543508172035217
1760903915112036400,4.780036376953125,2.948470115661621,-3.6237616539001465,-0.2525898218154907
1760903915121725200,4.78972509765625,1.3342294692993164,-3.042705774307251,-0.49497002363204956
1760903915131414300,4.799414306640625,3.7210350036621094,-1.9190614223480225,-1.546502947807312
1760903915141103400,4.809103271484375,1.5523004531860352,-1.2169171571731567,-0.3130038380622864
1760903915150792400,4.81879248046875,0.8630132675170898,-0.605536937713623,0.2940909266471863
1760903915160481300,4.828481201171875,1.3188810348510742,0.2888820171356201,0.6060311794281006
1760903915170170400,4.83817041015625,-0.7296228408813477,0.7860357761383057,0.7690659165382385
1760903915179859200,4.847859130859375,-1.833467960357666,1.0021785497665405,0.13126793503761292
1760903915189548300,4.85754833984375,-1.5298585891723633,1.0046480894088745,0.5891355276107788
1760903915199237400,4.8672373046875,0.6880912780761719,1.6174945831298828,1.971376657485962
1760903915208926500,4.876926513671875,1.747208595275879,0.8315764665603638,1.1732139587402344
1760903915218615300,4.886615234375,2.3859357833862305,-0.608081042766571,0.4297916889190674
1760903915228304400,4.896304443359375,2.6445493698120117,-1.0084843635559082,0.21237154304981232
1760903915247682300,4.915682373046875,0.7855281829833984,-1.431363821029663,-0.3162812292575836
1760903915257371400,4.925371337890625,-0.8438282012939453,-0.7629228830337524,0.6265288591384888
1760903915267060200,4.935060302734375,-2.063910961151123,0.14182746410369873,2.0372326374053955
1760903915276749300,4.944749267578125,-2.9874329566955566,0.4473421573638916,2.2587294578552246
1760903915286438400,4.9544384765625,-3.4354147911071777,0.6249732971191406,1.8298131227493286
1760903915296127200,4.964127197265625,-2.410975933074951,0.38303160667419434,0.6790270805358887
1760903915305816300,4.97381640625,-1.5835533142089844,-0.07229280471801758,0.21070903539657593
1760903915315505400,4.98350537109375,-1.4255990982055664,-0.9221711158752441,0.20804670453071594
1760903915325194200,4.9931943359375,-1.2958011627197266,-1.7354304790496826,-0.23948422074317932
1760903915334883300,5.00288330078125,-0.9165477752685547,-2.0080947875976562,-0.353413462638855
1760903915344572400,5.012572509765625,-0.7751178741455078,-1.7518842220306396,0.004597187042236328
1760903915354261500,5.022261474609375,-1.2288780212402344,-1.1908135414123535,0.5939095616340637
1760903915363950300,5.031950439453125,-2.084592819213867,-0.7397216558456421,0.9704561233520508
1760903915383328300,5.051328369140625,-2.923552989959717,-0.5374205112457275,0.45515328645706177
1760903915393017300,5.061017333984375,-1.5601739883422852,-0.6362613439559937,-0.6316207647323608
1760903915402706400,5.07070654296875,-0.2274312973022461,-0.5504552721977234,-1.1677274703979492
1760903915412395500,5.0803955078125,0.2728433609008789,-0.6820221543312073,-1.304929256439209
1760903915422084400,5.09008447265625,0.31644630432128906,-0.8522039651870728,-1.5854570865631104
1760903915431773400,5.0997734375,0.3771800994873047,-0.9339889883995056,-1.8258085250854492
1760903915441462300,5.109462158203125,-0.11911582946777344,-1.4310777187347412,-1.547814130783081
1760903915451151400,5.1191513671875,-0.48868370056152344,-1.6126290559768677,-2.377345561981201
1760903915460840400,5.12884033203125,-0.8368854522705078,-0.813154935836792,-3.5776009559631348
1760903915470529500,5.138529541015625,-1.0968799591064453,-0.3550297021865845,-2.9614484310150146
1760903915480218400,5.14821826171875,-1.7075004577636719,-0.05125558376312256,-1.2100416421890259
1760903915489907500,5.157907470703125,-1.7612762451171875,0.36762523651123047,-0.1787911057472229
1760903915499596500,5.167596435546875,-1.680389404296875,-0.012560367584228516,0.195232093334198
1760903915509285400,5.177285400390625,-1.2745170593261719,-0.626862108707428,-0.11219251155853271
1760903915518974500,5.186974365234375,-0.3877573013305664,-1.1119204759597778,-0.6127659678459167
1760903915528663600,5.19666357421875,1.9454593658447266,-1.4256088733673096,-1.3930423259735107
1760903915538352400,5.206352294921875,3.9642581939697266,-1.5034396648406982,-1.9612903594970703
1760903915548041500,5.21604150390625,4.306328773498535,-1.303650140762329,-1.9441367387771606
1760903915557730600,5.22573046875,3.5370407104492188,-0.9977315664291382,-1.5334782600402832
1760903915567419400,5.23541943359375,2.2658510208129883,-0.5422788262367249,-1.1409952640533447
1760903915577108500,5.2451083984375,1.2843799591064453,-0.10008257627487183,-0.9841518402099609
1760903915586797600,5.254797607421875,0.6002569198608398,0.37850964069366455,-1.5571774244308472
1760903915596486400,5.264486328125,0.0022573471069335938,0.4762631058692932,-1.666877269744873
1760903915606175500,5.274175537109375,-0.2848348617553711,-0.11931341886520386,-1.8359918594360352
1760903915615864600,5.283864501953125,-0.2942924499511719,-0.6166976690292358,-1.9023165702819824
1760903915635242500,5.303242431640625,0.3975400924682617,0.19934862852096558,-1.4931583404541016
1760903915644931600,5.312931640625,1.3731584548950195,0.2929137349128723,-0.8669270873069763
1760903915654620700,5.32262060546875,2.536134719848633,0.2603253722190857,-0.032497525215148926
1760903915664309500,5.3323095703125,3.003628730773926,0.13506847620010376,0.35437262058258057
1760903915673998600,5.34199853515625,2.5499963760375977,-0.5171129107475281,0.31711137294769287
1760903915683687700,5.351687744140625,1.4940681457519531,-0.8959258198738098,0.04662048816680908
1760903915693376800,5.361376708984375,0.7443180084228516,0.35394370555877686,-0.047225236892700195
1760903915703065600,5.371065673828125,-0.8417205810546875,0.5346689224243164,0.6271363496780396
1760903915712754700,5.380754638671875,-1.2069463729858398,0.5831892490386963,0.2416844367980957
1760903915722443800,5.39044384765625,-1.1914300918579102,0.22464406490325928,-0.5742222666740417
1760903915732132600,5.400132568359375,-1.0827817916870117,-0.020515799522399902,-0.9008885622024536
1760903915741821700,5.40982177734375,-0.9563465118408203,-0.5256180763244629,-0.5591575503349304
1760903915751510800,5.4195107421875,-0.16121482849121094,-0.5781735777854919,-0.28681957721710205
1760903915761199600,5.42919970703125,0.04638099670410156,-0.37459099292755127,-0.16839474439620972
1760903915770888700,5.438888671875,-0.1364583969116211,0.004526019096374512,-0.16116410493850708
1760903915780577800,5.448577880859375,-0.5470342636108398,0.3530937433242798,0.2503400444984436
1760903915790267000,5.458266845703125,-0.6317873001098633,0.5710271596908569,0.6116647720336914
1760903915799955700,5.467955810546875,-0.6979141235351562,0.6906205415725708,0.8164586424827576
1760903915809644800,5.477644775390625,-0.4927091598510742,0.6783859729766846,0.7196754217147827
1760903915819334000,5.487333984375,-0.42742347717285156,0.7444579601287842,0.5466122031211853
1760903915829023000,5.49702294921875,-0.6162710189819336,0.9179232120513916,0.5248534083366394
1760903915838711800,5.5067119140625,-0.8009738922119141,1.0518320798873901,0.3806595802307129
1760903915848401000,5.51640087890625,-0.9914007186889648,1.185426950454712,0.3595115542411804
1760903915858090000,5.526090087890625,-1.086930274963379,1.3891527652740479,0.37325942516326904
1760903915867778800,5.53577880859375,-1.0492591857910156,1.4655654430389404,0.24906545877456665
1760903915877468000,5.545468017578125,-0.873631477355957,1.1354395151138306,0.13695776462554932
1760903915887157000,5.555156982421875,-0.4882516860961914,0.7197530269622803,0.06800538301467896
1760903915896846000,5.56484619140625,0.2313241958618164,0.3154178857803345,0.27103376388549805
1760903915906535000,5.574534912109375,1.785806655883789,0.9618939161300659,-1.4776923656463623
1760903915916224000,5.58422412109375,-0.32929229736328125,1.3662728071212769,0.3604357838630676
1760903915925913000,5.5939130859375,-1.0925121307373047,0.9573599100112915,0.9646052718162537
1760903915935602200,5.603602294921875,-0.9614353179931641,1.1190526485443115,0.2326759696006775
1760903915945291000,5.613291015625,-1.0371475219726562,1.168655514717102,-0.03807884454727173
1760903915954980000,5.62297998046875,-1.0041351318359375,0.9568643569946289,0.22657614946365356
1760903915964669200,5.632669189453125,-0.7710132598876953,0.9157294034957886,-0.11166971921920776
1760903915974358300,5.642358154296875,-0.8294353485107422,0.8133151531219482,-0.06988859176635742
1760903915984047400,5.65204736328125,-0.5196990966796875,0.27287769317626953,1.2913401126861572
1760903915993736200,5.661736083984375,0.7971124649047852,0.10381245613098145,0.617746889591217
1760903916003425300,5.67142529296875,1.6142444610595703,0.4972529411315918,-1.4969239234924316
1760903916013114400,5.6811142578125,0.6006889343261719,0.5292460918426514,-1.9238685369491577
1760903916022803500,5.690803466796875,-1.507889747619629,-0.24017703533172607,-0.05087941884994507
1760903916032492500,5.700492431640625,-2.077209949493408,-0.027007341384887695,0.5366174578666687
1760903916042181400,5.710181396484375,-2.4576616287231445,0.9657922983169556,-0.4460691809654236
1760903916051870500,5.719870361328125,-2.1215195655822754,1.2230913639068604,-0.42987117171287537
1760903916061559600,5.7295595703125,-1.3792304992675781,1.193607211112976,0.8119099736213684
1760903916071248600,5.73924853515625,-1.990140438079834,1.1244317293167114,0.921501874923706
1760903916080937500,5.7489375,-1.5755939483642578,1.182130217552185,-0.09357696771621704
1760903916090626600,5.75862646484375,-1.1665754318237305,0.9928158521652222,-0.9859582781791687
1760903916100315600,5.768315673828125,-0.9347782135009766,0.3204943537712097,-1.1254810094833374
1760903916110004700,5.778004638671875,-0.5194787979125977,0.38300734758377075,-0.5769304037094116
1760903916119693800,5.78769384765625,-0.033675193786621094,0.7410876750946045,-0.41531431674957275
1760903916129382700,5.797382568359375,0.4218425750732422,0.6177241206169128,-0.15511798858642578
1760903916139071700,5.80707177734375,1.111994743347168,0.448589563369751,0.14743316173553467
1760903916148760800,5.8167607421875,2.1527042388916016,0.04674750566482544,-0.35136735439300537
1760903916158450000,5.826449951171875,2.558168411254883,-0.09692516922950745,-1.111328125
1760903916168139000,5.836138916015625,2.4258785247802734,-0.07572607696056366,-1.6269042491912842
1760903916177827800,5.845827880859375,1.9445810317993164,-0.20399504899978638,-1.5946269035339355
1760903916187517000,5.855516845703125,1.4315128326416016,-0.47724515199661255,-1.0941741466522217
1760903916197206000,5.8652060546875,1.1645822525024414,-0.7374016046524048,-0.36012589931488037
1760903916206895000,5.87489501953125,1.1432971954345703,-0.697028398513794,0.31812572479248047
1760903916216584200,5.884584228515625,1.118128776550293,-0.4378366768360138,0.7738056182861328
1760903916226273300,5.894273193359375,1.0212411880493164,-0.15721409022808075,1.0535324811935425
1760903916235962400,5.90396240234375,1.1525678634643555,0.4706366956233978,0.225530743598938
1760903916245651200,5.913651123046875,0.9243535995483398,0.9736546277999878,-0.5240238904953003
1760903916255340300,5.92334033203125,0.2615184783935547,1.040874719619751,-0.47509968280792236
1760903916265029400,5.933029296875,-0.361602783203125,1.0339360237121582,-0.24372494220733643
1760903916274718500,5.942718505859375,-0.6010723114013672,1.2576634883880615,-0.09618991613388062
1760903916284407600,5.952407470703125,-0.43450355529785156,1.5314948558807373,-0.001820981502532959
1760903916294096600,5.9620966796875,-0.125885009765625,1.6128802299499512,0.06491678953170776
1760903916303785700,5.97178564453125,0.10988330841064453,1.5074517726898193,0.0990944504737854
1760903916313474600,5.981474609375,0.1211252212524414,1.2305150032043457,0.045850157737731934
1760903916323163600,5.99116357421875,0.1957559585571289,0.7781944274902344,0.025895416736602783
1760903916332852700,6.000852783203125,0.6200666427612305,0.25408095121383667,0.05826079845428467
1760903916342541800,6.010541748046875,1.1877565383911133,-0.2412344515323639,0.18283814191818237
1760903916352231000,6.02023095703125,1.8119735717773438,-0.6904400587081909,0.44748014211654663
1760903916361920000,6.029919921875,1.7420740127563477,-0.6182629466056824,0.8880384564399719
1760903916371609000,6.039609130859375,2.139314651489258,-1.6342267990112305,0.5944148898124695
1760903916381298200,6.049298095703125,1.25067138671875,-2.4048638343811035,0.8062237501144409
1760903916390987000,6.058987060546875,1.1889724731445312,-2.5938310623168945,0.09024733304977417
1760903916400676000,6.068676025390625,1.030491828918457,-2.274493455886841,-0.4649444818496704
1760903916410365200,6.078365234375,0.6282434463500977,-1.907390832901001,-0.47657278180122375
1760903916420054300,6.08805419921875,-0.011202812194824219,-1.7067668437957764,-0.00874781608581543
1760903916429743400,6.097743408203125,-0.2715902328491211,-1.641526222229004,0.05421954393386841
1760903916439432400,6.107432373046875,-0.27266788482666016,-1.3080832958221436,0.3259872794151306
1760903916449121500,6.11712158203125,-0.38663578033447266,-0.994309663772583,0.9022224545478821
1760903916458810600,6.126810546875,-0.2884225845336914,-0.8385929465293884,1.347041130065918
1760903916468499700,6.136499755859375,-0.01696300506591797,-0.7975384593009949,1.5873526334762573
1760903916478188800,6.146188720703125,0.3414936065673828,-0.8908314108848572,1.8981155157089233
1760903916487878000,6.1558779296875,0.3623781204223633,-1.1075347661972046,2.0395076274871826
1760903916497567000,6.16556689453125,-0.04867839813232422,-1.1418596506118774,1.7296949625015259
1760903916507255800,6.175255859375,-0.5566892623901367,-1.4792295694351196,1.1204407215118408
1760903916516945000,6.18494482421875,-1.3055925369262695,-1.5479117631912231,1.050065040588379
1760903916526634000,6.194634033203125,-1.737386703491211,-1.2233160734176636,0.7705874443054199
1760903916536323000,6.204322998046875,-2.0543994903564453,-0.679182767868042,0.6815435886383057
1760903916546012200,6.21401220703125,-2.062136173248291,-0.18126022815704346,0.9558344483375549
1760903916555701200,6.223701171875,-2.110532760620117,0.16692030429840088,1.2762088775634766
1760903916565390300,6.233390380859375,-2.1234631538391113,0.346820592880249,1.293831467628479
1760903916575079400,6.243079345703125,-2.0581202507019043,0.3818093538284302,1.1690644025802612
1760903916584768500,6.2527685546875,-2.028785228729248,0.28805625438690186,0.8919026851654053
1760903916594457600,6.26245751953125,-1.8865761756896973,0.10406601428985596,0.3406277000904083
1760903916604146700,6.272146728515625,-1.5163984298706055,-0.007431626319885254,0.048477526754140854
1760903916613835800,6.281835693359375,-1.2714996337890625,-0.11178255081176758,-0.06425774842500687
1760903916623524900,6.29152490234375,-1.3041801452636719,-0.1668870449066162,-0.24839967489242554
1760903916633214000,6.3012138671875,-1.384908676147461,0.034285902976989746,-0.42223554849624634
1760903916642903000,6.310903076171875,-1.552229881286621,0.21568012237548828,-0.4948759078979492
1760903916652592000,6.320592041015625,-1.5150823593139648,0.27372825145721436,-0.3232435882091522
1760903916662281200,6.33028125,-1.3024768829345703,0.4093973636627197,-0.20641808211803436
1760903916671970300,6.33997021484375,-0.9191761016845703,0.7214963436126709,-0.35370638966560364
1760903916681659400,6.349659423828125,-0.5562295913696289,1.141488790512085,-0.5153630971908569
1760903916691348500,6.359348388671875,-0.5046510696411133,1.3532400131225586,-0.659670352935791
1760903916701037600,6.36903759765625,-0.5821819305419922,1.4999207258224487,-0.6981815099716187
1760903916710726700,6.3787265625,-0.5210409164428711,1.7620891332626343,-0.7725569009780884
1760903916720415700,6.388415771484375,-0.20670509338378906,2.036954402923584,-0.803049623966217
1760903916730104800,6.398104736328125,0.2794351577758789,2.216390609741211,-0.8169289827346802
1760903916739794000,6.4077939453125,0.7081050872802734,2.1785359382629395,-0.8952562808990479
1760903916749483000,6.41748291015625,1.0080432891845703,2.007765769958496,-0.9401611685752869
1760903916759172000,6.427172119140625,1.208207130432129,1.942716121673584,-1.166495680809021
1760903916768861200,6.436861083984375,1.2562103271484375,1.9980002641677856,-1.284177303314209
1760903916778550300,6.44655029296875,1.0471696853637695,1.9553219079971313,-1.4796422719955444
1760903916788239400,6.4562392578125,0.6911554336547852,1.665030837059021,-1.7729346752166748
1760903916797928400,6.465928466796875,0.44124794006347656,1.4261258840560913,-1.9617600440979004
1760903916807617500,6.475617431640625,0.2062664031982422,1.2929478883743286,-2.1002390384674072
1760903916817306600,6.485306640625,0.009885787963867188,1.2573128938674927,-2.18800687789917
1760903916826995700,6.49499560546875,-0.10517215728759766,1.1630871295928955,-2.269570827484131
1760903916836684800,6.504684814453125,-0.09613609313964844,1.0494624376296997,-2.2389042377471924
1760903916846374000,6.514373779296875,0.10357856750488281,0.8505280017852783,-2.1391265392303467
1760903916856063000,6.52406298828125,0.35995960235595703,0.6337498426437378,-2.039541721343994
1760903916865752000,6.533751953125,0.668309211730957,0.4222300052642822,-1.9794251918792725
1760903916875441200,6.543441162109375,0.9523115158081055,0.4580268859863281,-1.8692176342010498
1760903916885130200,6.553130126953125,1.1835527420043945,0.5582445859909058,-1.7422714233398438
1760903916894819300,6.5628193359375,1.3479156494140625,0.5028806924819946,-1.4692468643188477
1760903916904508400,6.57250830078125,1.655405044555664,0.48743563890457153,-1.3215928077697754
1760903916914197500,6.582197509765625,1.9758520126342773,0.8644952178001404,-1.4183439016342163
1760903916923886600,6.591886474609375,1.7975597381591797,1.4007582664489746,-1.6091537475585938
1760903916933575700,6.60157568359375,0.8313283920288086,1.1755502223968506,-0.46795734763145447
1760903916943264800,6.6112646484375,0.4355926513671875,1.2643027305603027,-0.9965654015541077
1760903916952953900,6.620953857421875,-0.33147621154785156,1.5779774188995361,-1.6178406476974487
1760903916962643000,6.630642822265625,-0.6570596694946289,1.0955168008804321,-0.9756976366043091
1760903916972332000,6.64033203125,-0.49925899505615234,0.8197727203369141,-0.7215248346328735
1760903916991710500,6.65971044921875,0.8063125610351562,0.6248621940612793,-1.1376290321350098
1760903917001399300,6.6693994140625,1.2548255920410156,0.44572293758392334,-1.5355463027954102
1760903917011088600,6.679088623046875,1.3051567077636719,0.3155973255634308,-1.5673234462738037
1760903917020777700,6.68877783203125,0.8867263793945312,0.23375123739242554,-1.357206106185913
1760903917030466800,6.698466796875,0.4069375991821289,0.37602970004081726,-0.9704474210739136
1760903917040156000,6.708156005859375,0.014781951904296875,0.5604689121246338,-0.44883573055267334
1760903917049845000,6.717844970703125,-0.6662693023681641,0.5327640175819397,0.012434542179107666
1760903917059534000,6.7275341796875,-1.0243263244628906,0.44167977571487427,0.38067305088043213
1760903917069223200,6.73722314453125,-0.9267768859863281,0.4589807987213135,0.03532671928405762
1760903917078912300,6.746912353515625,-0.3467397689819336,0.1966930627822876,-0.2815779745578766
1760903917088601300,6.756601318359375,0.7852067947387695,-0.22414597868919373,-0.9350879192352295
1760903917098290400,6.76629052734375,1.7086610794067383,-0.8860955238342285,-1.3832502365112305
1760903917107979500,6.7759794921875,1.976541519165039,-1.9281282424926758,-1.385865330696106
1760903917117668600,6.785668701171875,1.7737388610839844,-2.877215623855591,-1.0366653203964233
1760903917127358000,6.79535791015625,1.504654884338379,-3.4385387897491455,-0.6306737661361694
1760903917137047000,6.805047119140625,1.228377342224121,-3.4312918186187744,0.04677176475524902
1760903917146736000,6.814736083984375,1.0156583786010742,-2.7164220809936523,0.9570239782333374
1760903917156425200,6.82442529296875,0.670567512512207,-1.8673591613769531,1.7726423740386963
1760903917166114300,6.8341142578125,0.2006206512451172,-0.9682788848876953,2.443570613861084
1760903917175803400,6.843803466796875,-0.4706153869628906,-0.2931542694568634,2.880612850189209
1760903917185492500,6.853492431640625,-0.8973016738891602,0.23594963550567627,2.637352228164673
1760903917195181600,6.863181640625,-0.9218597412109375,0.5207489728927612,1.7116730213165283
1760903917204870700,6.87287060546875,-0.6263608932495117,0.7072089314460754,0.6467454433441162
1760903917214560000,6.88256005859375,-0.16635513305664062,0.8358476161956787,-0.32993656396865845
1760903917224249000,6.8922490234375,0.0814809799194336,0.7522162795066833,-1.0169081687927246
1760903917233938200,6.901938232421875,0.28936100006103516,0.21903914213180542,-1.3968851566314697
1760903917243627300,6.911627197265625,0.5998096466064453,-0.48632705211639404,-1.377490758895874
1760903917253316400,6.92131640625,-0.43509483337402344,-0.4325460195541382,-1.184024691581726
1760903917263005400,6.93100537109375,-0.8031234741210938,-0.7986881732940674,-0.6324073076248169
1760903917272694500,6.940694580078125,-1.1707277297973633,-0.5212551355361938,0.17368385195732117
1760903917282383600,6.950383544921875,-1.6013507843017578,-0.4206571578979492,0.879452645778656
1760903917292073000,6.960072998046875,-2.047847270965576,-0.23773586750030518,1.2275559902191162
1760903917301762000,6.969761962890625,-2.2758378982543945,0.026292860507965088,1.1898046731948853
1760903917311451100,6.979451171875,-2.132030963897705,0.3212611675262451,0.8594259023666382
1760903917321140200,6.98914013671875,-1.9556703567504883,0.48633497953414917,0.7936071753501892
1760903917330829300,6.998829345703125,-1.9232449531555176,0.23688006401062012,0.8692216277122498
1760903917340518400,7.008518310546875,-1.6329879760742188,-0.01933962106704712,0.547051191329956
1760903917350207700,7.018207763671875,-1.4147777557373047,-0.5382235646247864,0.7572168111801147
1760903917359896800,7.027896728515625,-1.1870107650756836,-1.0118424892425537,0.941460371017456
1760903917369586000,7.0375859375,-0.8348464965820312,-1.2627512216567993,1.075164556503296
1760903917379275000,7.04727490234375,-0.34412193298339844,-1.2106300592422485,1.3293769359588623
1760903917388964000,7.056964111328125,0.26573753356933594,-0.08157117664813995,1.6385297775268555
1760903917398653200,7.066653076171875,0.8655147552490234,0.5486001968383789,1.6117292642593384
1760903917408342300,7.07634228515625,1.378809928894043,0.8894801139831543,1.7477372884750366
1760903917418031600,7.086031494140625,1.7200422286987305,0.9020555019378662,1.841628074645996
1760903917427720700,7.095720703125,1.8229236602783203,1.1305265426635742,1.8507483005523682
1760903917437409800,7.105409912109375,1.2107086181640625,1.630345106124878,1.8821887969970703
1760903917447099000,7.115098876953125,0.9641427993774414,1.818564534187317,1.5381982326507568
1760903917456788000,7.1247880859375,0.5567874908447266,1.8719947338104248,1.1251472234725952
1760903917466477000,7.13447705078125,0.054843902587890625,1.6799921989440918,0.8249903321266174
1760903917476166400,7.14416650390625,-0.2847747802734375,1.7066559791564941,0.5403848886489868
1760903917485855500,7.15385546875,-0.2291240692138672,1.790968656539917,0.16510379314422607
1760903917495544600,7.163544677734375,0.034572601318359375,1.643860101699829,0.061656951904296875
1760903917505233700,7.173233642578125,0.5875225067138672,1.345566749572754,0.2282542586326599
1760903917514922800,7.1829228515625,1.0906047821044922,1.2550296783447266,0.5922258496284485
1760903917524612000,7.192612060546875,1.2820377349853516,0.3857341408729553,0.20856744050979614
1760903917534301200,7.20230126953125,1.7838964462280273,0.05223798751831055,0.043415606021881104
1760903917543990300,7.211990234375,2.0657434463500977,0.22331172227859497,0.05393701791763306
1760903917553679400,7.221679443359375,2.037466049194336,0.2179921269416809,-0.18799009919166565
1760903917563368400,7.231368408203125,1.9240570068359375,0.3906116485595703,-0.16569635272026062
1760903917573057800,7.241057861328125,1.8782100677490234,0.7668407559394836,-0.019339263439178467
1760903917582747000,7.250746826171875,1.9520330429077148,1.0960016250610352,0.19503799080848694
1760903917592436000,7.26043603515625,2.10693359375,1.2855122089385986,0.39888638257980347
1760903917602125000,7.270125,2.065798759460449,1.213191270828247,0.7820389866828918
1760903917611814100,7.279814208984375,1.7477436065673828,1.1116726398468018,1.376817226409912
1760903917621503500,7.28950341796875,1.2007436752319336,0.43143439292907715,1.6588406562805176
1760903917631192600,7.299192626953125,0.6734476089477539,-0.1768122911453247,1.828304409980774
1760903917640881700,7.308881591796875,0.7915496826171875,-0.7357999682426453,1.5668132305145264
1760903917650570800,7.31857080078125,1.4538726806640625,-1.3945175409317017,0.7122347354888916
1760903917660260000,7.328260009765625,2.14431095123291,-2.1599931716918945,-0.14493036270141602
1760903917669949200,7.33794921875,2.529294013977051,-2.7899389266967773,-0.7847154140472412
1760903917679638300,7.34763818359375,2.414076805114746,-3.148974895477295,-1.1083624362945557
1760903917689327400,7.357327392578125,1.7853775024414062,-2.9071500301361084,-0.8089144825935364
1760903917699016400,7.367016357421875,0.8967523574829102,-2.527740955352783,-0.44928449392318726
1760903917708705500,7.37670556640625,-0.43317604064941406,-2.128207206726074,-0.057399243116378784
1760903917718395000,7.386394775390625,-1.6595983505249023,-1.3299627304077148,0.3890862464904785
1760903917728084000,7.396083984375,-2.626054286956787,-0.6571546196937561,0.49949848651885986
1760903917737773000,7.40577294921875,-3.142937660217285,-0.16214239597320557,0.5410854816436768
1760903917747462400,7.41546240234375,-3.374055862426758,-0.033509135246276855,0.43399345874786377
1760903917757151500,7.4251513671875,-3.286644458770752,-0.022838950157165527,0.10980123281478882
1760903917766840600,7.434840576171875,-2.8857078552246094,-0.30021822452545166,-0.07965868711471558
1760903917776529700,7.44452978515625,-2.319216728210449,-0.6405505537986755,0.12441718578338623
1760903917786219000,7.454218994140625,-1.720595359802246,-0.8768262267112732,0.381563276052475
1760903917795908000,7.463908203125,-1.1086091995239258,-1.0762395858764648,0.3565225303173065
1760903917805597200,7.47359716796875,-0.7553892135620117,-1.1229125261306763,0.30582916736602783
1760903917815286300,7.483286376953125,-0.6463918685913086,-1.017755150794983,0.39730024337768555
1760903917824975400,7.492975341796875,-0.8579311370849609,-0.8024021983146667,0.5610010623931885
1760903917834664700,7.502664794921875,-1.4276924133300781,-0.5698332190513611,0.6836473345756531
1760903917844353800,7.512353759765625,-2.1352615356445312,-0.41658008098602295,0.6373872756958008
1760903917854043000,7.52204296875,-2.6747488975524902,-0.33955860137939453,0.46699678897857666
1760903917863732000,7.53173193359375,-2.8791723251342773,-0.362235426902771,0.11358219385147095
1760903917873421300,7.54142138671875,-2.7918701171875,-0.533620297908783,-0.4173576235771179
1760903917883110400,7.5511103515625,-2.4848880767822266,-0.7401382923126221,-1.0023220777511597
1760903917892799500,7.560799560546875,-2.0827059745788574,-0.9021265506744385,-1.3909592628479004
1760903917902488600,7.570488525390625,-1.7192363739013672,-0.9445611238479614,-1.4790090322494507
1760903917912178000,7.580177978515625,-1.2562131881713867,-0.7640104293823242,-1.2451071739196777
1760903917921867000,7.589866943359375,-0.8279657363891602,-0.4521326422691345,-0.8599107265472412
1760903917931556000,7.59955615234375,-0.7163114547729492,-0.0518496036529541,-0.35515668988227844
1760903917941245200,7.6092451171875,-0.7773895263671875,0.6722067594528198,0.19048070907592773
1760903917950934500,7.6189345703125,-1.044417381286621,1.135812520980835,0.7391688823699951
1760903917960623600,7.62862353515625,-1.368290901184082,1.4161022901535034,1.0528440475463867
1760903917970312700,7.638312744140625,-1.2382612228393555,1.6233729124069214,0.8055084347724915
1760903917980001800,7.648001708984375,-1.0181388854980469,1.5467826128005981,0.5575050711631775
1760903917989691100,7.657691162109375,-0.6745166778564453,1.290109634399414,0.4433889389038086
1760903917999380200,7.667380126953125,-0.26000118255615234,1.0129971504211426,0.3939153552055359
1760903918009069300,7.6770693359375,0.10132026672363281,0.7695554494857788,0.33518606424331665
1760903918018758400,7.68675830078125,0.24747371673583984,0.577529788017273,0.2901729941368103
1760903918028447700,7.69644775390625,0.2748394012451172,0.4788585901260376,0.269415020942688
1760903918038136800,7.70613671875,0.2984657287597656,0.2825164794921875,0.24130350351333618
1760903918047826000,7.715825927734375,0.24198150634765625,0.11406064033508301,0.289828896522522
1760903918057515300,7.725515380859375,0.17696857452392578,0.0950930118560791,0.5572605729103088
1760903918067204400,7.735204345703125,0.37520503997802734,0.19480538368225098,1.0381015539169312
1760903918076893400,7.7448935546875,0.7738151550292969,0.31011879444122314,1.4869909286499023
1760903918086582500,7.75458251953125,1.5777301788330078,0.34947872161865234,1.6700313091278076
1760903918096272000,7.76427197265625,2.422636032104492,0.288527250289917,1.5765299797058105
1760903918105961000,7.7739609375,3.0548095703125,0.022076964378356934,1.3724168539047241
1760903918115650000,7.783650146484375,3.2692060470581055,-0.35881441831588745,1.0085294246673584
1760903918125339400,7.79333935546875,3.2388124465942383,-0.7253250479698181,0.5035608410835266
1760903918135028500,7.803028564453125,3.006793975830078,-0.8607783317565918,0.06016033887863159
1760903918144717600,7.812717529296875,2.5156660079956055,-0.74712073802948,-0.20056778192520142
1760903918154406700,7.82240673828125,1.913818359375,-0.2941105365753174,0.05577206611633301
1760903918164096000,7.832095947265625,1.4597597122192383,-0.3441147804260254,-0.05641889572143555
1760903918173785000,7.84178515625,1.182600975036621,-0.7860667109489441,-0.4517335593700409
1760903918183474200,7.85147412109375,1.4265165328979492,-1.0418832302093506,-0.7550886273384094
1760903918193163500,7.86116357421875,1.6802091598510742,-1.2962957620620728,-0.8825302720069885
1760903918202852600,7.8708525390625,1.6052818298339844,-1.717625617980957,-0.5551451444625854
1760903918212541700,7.880541748046875,1.3600406646728516,-2.069312572479248,-0.1468961238861084
1760903918222231000,7.89023095703125,1.0972347259521484,-2.3369975090026855,0.2372647523880005
1760903918231920000,7.899920166015625,0.7162513732910156,-2.542893171310425,0.49917858839035034
1760903918241609200,7.909609130859375,0.3077249526977539,-2.6176259517669678,0.6108112335205078
1760903918251298300,7.91929833984375,-0.004294395446777344,-2.462803363800049,0.5356988310813904
1760903918260987600,7.928987548828125,-0.06707191467285156,-2.1909584999084473,0.391370952129364
1760903918270676700,7.9386767578125,0.09532451629638672,-1.8492889404296875,0.2574876546859741
1760903918280365800,7.94836572265625,0.5448389053344727,-1.622126579284668,-0.12424993515014648
1760903918290055000,7.958054931640625,0.955967903137207,-1.4611585140228271,-0.4285246431827545
1760903918299744300,7.967744140625,1.222743034362793,-1.1734724044799805,-0.4007968008518219
1760903918309433300,7.977433349609375,1.1390743255615234,-0.8165221810340881,-0.08238035440444946
1760903918319122400,7.987122314453125,0.6911897659301758,-0.33640462160110474,0.2456951141357422
1760903918328811800,7.996811767578125,-0.10991573333740234,0.19228219985961914,0.260711669921875
1760903918338500900,8.0065009765625,-0.8811588287353516,0.5867422819137573,0.07650041580200195
1760903918348190000,8.01618994140625,-1.536412239074707,0.8977317810058594,-0.1403065323829651
1760903918357879300,8.02587939453125,-2.032604217529297,1.0742915868759155,-0.4156656563282013
1760903918367568400,8.035568359375,-2.298255443572998,1.1027647256851196,-0.6975545883178711
1760903918377257500,8.045257568359375,-2.247921943664551,1.0827358961105347,-0.9680972099304199
1760903918386946600,8.054946533203125,-1.9777307510375977,0.9737738370895386,-1.1075338125228882
1760903918396636000,8.064635986328126,-1.6025524139404297,0.8680516481399536,-1.0007247924804688
1760903918406325000,8.074324951171874,-1.1558246612548828,0.6804715991020203,-0.8372491598129272
1760903918416014000,8.08401416015625,-0.7137966156005859,0.425937294960022,-0.8109538555145264
1760903918425703400,8.093703369140625,-0.008756637573242188,1.0106841325759888,-0.6449491381645203
1760903918435392500,8.103392578125,0.1461009979248047,0.1622612476348877,-0.6888213157653809
1760903918445081600,8.11308154296875,-0.6674842834472656,-0.6717780828475952,-0.40572482347488403
1760903918454771000,8.12277099609375,-0.7817859649658203,-1.000514030456543,-0.8108663558959961
1760903918464460000,8.1324599609375,-0.9486494064331055,-0.834464430809021,-1.4607776403427124
1760903918474149000,8.142149169921876,-1.3017587661743164,-0.5902144908905029,-1.334182620048523
1760903918483838200,8.151838134765624,-1.549616813659668,-0.24154704809188843,-0.9463778138160706
1760903918493527600,8.161527587890625,-1.687967300415039,0.16455042362213135,-0.5840095281600952
1760903918503216600,8.171216552734375,-1.5117616653442383,0.5785790681838989,-0.22530925273895264
1760903918512905700,8.18090576171875,-1.035573959350586,0.7666895389556885,-0.007493138313293457
1760903918522595000,8.190594970703126,-0.37416934967041016,0.7758851051330566,-0.005177408456802368
1760903918532284200,8.2002841796875,0.20008373260498047,0.6839206218719482,-0.20944105088710785
1760903918541973200,8.20997314453125,0.5679922103881836,0.6286098957061768,-0.4469669759273529
1760903918551662600,8.21966259765625,0.5438423156738281,0.6636127233505249,-0.6176455020904541
1760903918561351700,8.2293515625,0.3528480529785156,0.8963795900344849,-0.652510404586792
1760903918571040800,8.239040771484374,0.023838043212890625,1.1438202857971191,-0.5845513939857483
1760903918580729900,8.248729736328125,-0.25196361541748047,1.250512957572937,-0.6512027978897095
1760903918590419200,8.258419189453125,-0.28353118896484375,1.2920565605163574,-0.8698586821556091
1760903918600108300,8.2681083984375,0.24411773681640625,1.2449616193771362,-1.0379972457885742
1760903918609797400,8.27779736328125,1.129866600036621,1.0935015678405762,-0.8877758979797363
1760903918619486700,8.28748681640625,1.8532257080078125,0.5797768831253052,-0.5404959917068481
1760903918629175800,8.29717578125,2.262326240539551,-0.006163120269775391,-0.30627450346946716
1760903918638865200,8.306865234375,2.444183349609375,-0.49681293964385986,-0.41173893213272095
1760903918648554200,8.31655419921875,2.4615211486816406,-0.8376194834709167,-0.734252393245697
1760903918658243300,8.326243408203124,2.324395179748535,-0.9926533699035645,-1.0781997442245483
1760903918667932400,8.335932373046875,2.0334386825561523,-0.9785462021827698,-1.108672857284546
1760903918677621800,8.345621826171875,1.5273628234863281,-0.6690735816955566,-1.1026065349578857
1760903918687310800,8.355310791015626,0.9212245941162109,-0.13312923908233643,-1.0566099882125854
1760903918697000000,8.365,0.24757862091064453,0.5323994159698486,-0.9098029136657715
1760903918706689300,8.374689208984375,-0.44844532012939453,1.145984411239624,-0.6121996641159058
1760903918716378400,8.38437841796875,-0.640625,1.4040124416351318,-0.25505077838897705
1760903918726067500,8.3940673828125,-0.09364700317382812,1.2907860279083252,0.15700656175613403
1760903918735756800,8.4037568359375,1.1209497451782227,0.39572715759277344,0.302151620388031
1760903918745446000,8.41344580078125,2.509410858154297,-1.186789631843567,0.1487937569618225
1760903918755135000,8.423135009765625,3.4250926971435547,-2.2640674114227295,0.12268942594528198
1760903918764824300,8.43282421875,3.3735580444335938,-3.108666181564331,-0.12323200702667236
1760903918774513400,8.442513427734376,2.6966171264648438,-3.2947371006011963,0.5333718061447144
1760903918784202500,8.452202392578124,1.4682531356811523,-2.738332986831665,-0.3606477975845337
1760903918793891600,8.4618916015625,0.056801795959472656,-1.7095211744308472,-0.8731698989868164
1760903918813270000,8.48127001953125,-2.857788562774658,-1.0739359855651855,-1.1711041927337646
1760903918822959400,8.49095947265625,-3.3620991706848145,-2.5019898414611816,-0.43685925006866455
1760903918832648400,8.5006484375,-2.861886978149414,-1.906327247619629,0.9475645422935486
1760903918842337500,8.510337646484375,-2.2555322647094727,-1.5750045776367188,0.7137494087219238
1760903918852027000,8.52002685546875,-1.8429484367370605,-0.6025655269622803,0.45268958806991577
1760903918861716000,8.529716064453124,-1.7485685348510742,-0.04626631736755371,0.9529680609703064
1760903918871405000,8.539405029296875,-1.6329092979431152,-0.3116006851196289,1.7224171161651611
1760903918881094100,8.54909423828125,-1.139632225036621,-0.7992455959320068,2.4192285537719727
1760903918890783500,8.558783447265625,-0.8916797637939453,-1.2372071743011475,2.901818037033081
1760903918900472600,8.56847265625,-1.0157852172851562,-1.4116425514221191,2.7040319442749023
1760903918910161700,8.57816162109375,-1.5840725898742676,-1.8705601692199707,1.6309683322906494
1760903918919851000,8.58785107421875,-1.574141025543213,-2.065596103668213,0.5743675231933594
1760903918929540000,8.5975400390625,-0.8507213592529297,-1.8058637380599976,0.7530423402786255
1760903918939229200,8.607229248046876,-0.27718448638916016,-0.9363205432891846,1.2015314102172852
1760903918948918500,8.61691845703125,-0.0998373031616211,-0.31095004081726074,0.9875009059906006
1760903918958607600,8.626607666015625,-0.3763084411621094,-0.019587278366088867,0.3061203956604004
1760903918968296700,8.636296630859375,-1.0331554412841797,0.07512688636779785,0.09523320198059082
1760903918977986000,8.645986083984376,-1.3793797492980957,-0.22351956367492676,0.3308295011520386
1760903918987675100,8.655675048828124,-1.0900402069091797,-0.5821337699890137,0.9683454036712646
1760903918997364200,8.6653642578125,-0.9337053298950195,-1.0030267238616943,1.525679588317871
1760903919007053600,8.675053466796875,-1.2769761085510254,-1.1485708951950073,1.5902928113937378
1760903919016742700,8.68474267578125,-2.680142402648926,-0.5054411888122559,0.036977291107177734
1760903919026431700,8.694431640625,-2.590548515319824,0.4875669479370117,-1.487918496131897
1760903919036121000,8.70412109375,-2.3108177185058594,1.335411787033081,-3.0199084281921387
1760903919045810200,8.71381005859375,-1.8259038925170898,1.8945121765136719,-3.854809284210205
1760903919055499300,8.723499267578125,-1.2012529373168945,1.5131323337554932,-1.849642276763916
1760903919065188600,8.733188720703126,-0.47365665435791016,0.9502828121185303,0.3404886722564697
1760903919074877700,8.742877685546874,0.2875518798828125,1.0681169033050537,0.6785202026367188
1760903919084566800,8.75256689453125,0.9265670776367188,1.282280683517456,0.2497190237045288
1760903919094256000,8.762256103515625,1.1815557479858398,1.3141071796417236,-0.1851736307144165
1760903919103945200,8.7719453125,1.2585458755493164,1.1809868812561035,-0.43601667881011963
1760903919113634300,8.78163427734375,1.2726612091064453,1.0675673484802246,-0.6305787563323975
1760903919123323600,8.79132373046875,0.8218955993652344,1.0717358589172363,-0.7194128036499023
1760903919133012700,8.8010126953125,0.043003082275390625,1.246518611907959,-0.7146174907684326
1760903919142701800,8.810701904296875,-0.4401426315307617,1.442229986190796,-0.3804812431335449
1760903919152391200,8.82039111328125,-0.35682010650634766,1.6606051921844482,-0.08177173137664795
1760903919162080300,8.830080322265625,-0.07138252258300781,1.6507599353790283,0.14564597606658936
1760903919171769300,8.839769287109375,0.3679361343383789,1.497429609298706,0.2544233798980713
1760903919181458700,8.849458740234375,0.9372901916503906,1.2651467323303223,0.24175775051116943
1760903919191147800,8.859147705078126,1.7428359985351562,0.9772284030914307,0.17857539653778076
1760903919200836900,8.8688369140625,2.882321357727051,0.7574968338012695,0.007776737213134766
1760903919210526200,8.878526123046875,3.8756961822509766,0.7002642154693604,-0.17439258098602295
1760903919220215300,8.88821533203125,3.969790458679199,0.5557990074157715,-0.09566390514373779
1760903919229904600,8.897904541015626,3.083409309387207,0.25140953063964844,0.005434751510620117
1760903919239593700,8.90759375,1.9747304916381836,0.15440726280212402,-0.12576472759246826
1760903919249282800,8.91728271484375,1.4586896896362305,0.5974838733673096,-0.10660767555236816
1760903919258972000,8.926971923828125,0.9495687484741211,1.131866216659546,0.06583750247955322
1760903919268661200,8.9366611328125,0.5365390777587891,1.498702049255371,0.357427179813385
1760903919278350300,8.946350341796874,0.31890296936035156,1.666680097579956,0.6810421943664551
1760903919288039700,8.956039794921875,0.13827228546142578,1.3745944499969482,0.724940299987793
1760903919297728800,8.965728759765625,0.3968477249145508,0.7596914768218994,0.6065757870674133
1760903919307417900,8.97541796875,2.0774974822998047,0.37716150283813477,1.021119236946106
1760903919317107000,8.98510693359375,2.917660713195801,-0.12718915939331055,1.5994735956192017
1760903919326796300,8.99479638671875,2.853424072265625,-0.8167388439178467,1.5949288606643677
1760903919336485400,9.0044853515625,2.2487049102783203,-1.1993913650512695,1.320499300956726
1760903919346174700,9.0141748046875,1.5797290802001953,-1.274883508682251,0.9028434753417969
1760903919355863800,9.02386376953125,0.851898193359375,-1.4267877340316772,1.2014915943145752
1760903919365553000,9.033552978515624,0.6402177810668945,-1.6822088956832886,1.7110763788223267
1760903919375242200,9.0432421875,0.42281246185302734,-1.8094546794891357,1.174856185913086
1760903919384931300,9.052931396484375,-0.7271232604980469,-2.570976972579956,1.0598291158676147
1760903919394620400,9.062620361328126,-2.2977232933044434,-2.6471610069274902,0.7815120816230774
1760903919404309500,9.0723095703125,-2.381143569946289,-1.413090467453003,0.5231147408485413
1760903919413998800,9.081998779296875,-1.430471420288086,-0.16682982444763184,0.5034085512161255
1760903919423688000,9.09168798828125,-1.7780194282531738,-0.4519538879394531,0.5158929824829102
1760903919433377300,9.101377197265625,0.04592418670654297,1.0600370168685913,0.8825654983520508
1760903919443066400,9.11106640625,1.8403339385986328,3.0093979835510254,1.245152473449707
1760903919452755500,9.12075537109375,3.3816099166870117,3.7276411056518555,0.45634132623672485
1760903919462444500,9.130444580078125,3.793206214904785,2.782784938812256,0.3547592759132385
1760903919472134000,9.1401337890625,2.482879638671875,1.192099690437317,1.2584153413772583
1760903919481823000,9.149822998046876,0.5601711273193359,-0.09369635581970215,1.6522700786590576
1760903919491512300,9.15951220703125,-0.991363525390625,-0.5815238952636719,1.0851683616638184
1760903919501201400,9.169201416015625,-1.7484769821166992,-0.5230526924133301,0.18782281875610352
1760903919510890500,9.178890380859375,-1.7614355087280273,-0.2845374345779419,-0.5516138076782227
1760903919520579800,9.188579833984376,-0.37318992614746094,-0.5015453100204468,-1.0466339588165283
1760903919530269000,9.19826904296875,-0.4784994125366211,-0.5751911401748657,-0.09225834906101227
1760903919539958000,9.2079580078125,-0.20454120635986328,-0.6489952802658081,0.2390219271183014
1760903919549647000,9.217647216796875,0.3259439468383789,-0.7219847440719604,-0.10452088713645935
1760903919559336400,9.22733642578125,0.44081592559814453,-1.0231096744537354,-0.17251670360565186
1760903919569025500,9.237025634765626,0.09892845153808594,-1.3485140800476074,0.6318572759628296
1760903919578715000,9.24671484375,-0.4503049850463867,-1.1214183568954468,2.274038314819336
1760903919588404000,9.256404052734375,-0.7980670928955078,-1.1556179523468018,2.1745641231536865
1760903919598093000,9.266093017578125,-1.7638373374938965,-1.0472205877304077,1.4905428886413574
1760903919607782400,9.275782470703126,-2.7382969856262207,-0.7785682678222656,1.0652474164962769
1760903919617471500,9.285471435546874,-3.2194671630859375,-0.9331357479095459,0.7414282560348511
1760903919627160600,9.29516064453125,-3.4775686264038086,-1.5183814764022827,0.5509155988693237
1760903919636850000,9.304849853515625,-3.743813991546631,-1.843611478805542,0.5177667140960693
1760903919646539000,9.3145390625,-4.450528144836426,-1.5420329570770264,0.6611648797988892
1760903919656228000,9.32422802734375,-4.649411678314209,-0.9717233180999756,1.0984594821929932
1760903919665917400,9.33391748046875,-4.342841625213623,-0.6627476215362549,0.9789261817932129
1760903919675606500,9.3436064453125,-2.5256991386413574,0.22759366035461426,0.7645293474197388
1760903919685295600,9.353295654296875,-1.3943777084350586,0.32844042778015137,0.21208980679512024
1760903919694984700,9.362984619140626,-0.28630638122558594,0.6924669742584229,-0.22956061363220215
1760903919704674000,9.372674072265625,0.2518281936645508,0.7759325504302979,-0.8140456080436707
1760903919714363100,9.382363037109375,0.8491125106811523,1.177523136138916,-1.9812202453613281
1760903919724052200,9.39205224609375,0.9194059371948242,1.8526427745819092,-5.987992286682129
1760903919733741600,9.401741455078126,1.2847108840942383,1.7327256202697754,-5.8061699867248535
1760903919743430700,9.4114306640625,0.4983654022216797,0.582737922668457,0.716410756111145
1760903919753120000,9.4211201171875,0.26186466217041016,1.2315683364868164,0.5328928232192993
1760903919762809000,9.43080908203125,0.7822475433349609,1.4945104122161865,-0.21913951635360718
1760903919772498200,9.440498291015626,1.290389060974121,0.9724411964416504,-0.8780081868171692
1760903919782187300,9.450187255859374,1.751938819885254,0.530625581741333,0.1844140887260437
1760903919791876600,9.459876708984375,2.265779495239258,0.34302592277526855,0.4302048683166504
1760903919801565700,9.469565673828125,1.8224000930786133,0.20784521102905273,0.01847892999649048
1760903919811254800,9.4792548828125,1.3358325958251953,0.4722154140472412,-1.1083242893218994
1760903919820944100,9.488944091796874,0.22739601135253906,0.6117746829986572,-1.251528024673462
1760903919830633200,9.49863330078125,-0.5286884307861328,1.2340009212493896,-1.7709758281707764
1760903919840322300,9.508322265625,-0.4158353805541992,1.8786239624023438,-0.9816089868545532
1760903919850011600,9.51801171875,1.065561294555664,3.0648701190948486,-0.19066321849822998
1760903919859700700,9.52770068359375,2.636715888977051,3.7317779064178467,0.7753324508666992
1760903919869389800,9.537389892578124,3.710635185241699,3.148930311203003,2.556936025619507
1760903919879079200,9.5470791015625,3.420172691345215,1.2773864269256592,2.3377327919006348
1760903919888768300,9.556768310546875,2.56241512298584,-1.200797200202942,1.0786645412445068
1760903919898457300,9.566457275390626,2.288022041320801,-2.039912223815918,0.9880680441856384
1760903919908146700,9.576146728515624,1.314427375793457,-1.46378493309021,1.7647173404693604
1760903919917835800,9.585835693359375,0.8271961212158203,-1.3558273315429688,2.0667660236358643
1760903919927524900,9.59552490234375,1.0698204040527344,-2.143371820449829,1.5154057741165161
1760903919937214200,9.605214111328126,1.4503707885742188,-2.160010814666748,2.0343010425567627
1760903919946903300,9.6149033203125,1.5009403228759766,-1.3658404350280762,2.214916944503784
1760903919956592400,9.62459228515625,0.6722440719604492,-1.144900918006897,1.9176260232925415
1760903919966281500,9.634281494140625,-0.012576103210449219,-1.3803482055664062,1.194105625152588
1760903919975970800,9.643970703125,0.10574817657470703,-1.5811039209365845,0.7569656372070312
1760903919985660000,9.653659912109376,0.39128589630126953,-1.4672927856445312,0.7091628313064575
1760903919995349000,9.663348876953124,0.1465282440185547,-1.1915919780731201,0.8193396329879761
1760903920005038300,9.673038330078125,-0.4797496795654297,-0.9394471645355225,0.9024995565414429
1760903920014727400,9.6827275390625,-1.3203935623168945,-0.8758816719055176,0.7724225521087646
1760903920024416500,9.69241650390625,-2.375664234161377,-0.9892911911010742,0.2700559198856354
1760903920034105900,9.70210595703125,-2.3114728927612305,-0.8208248615264893,-0.004263967275619507
1760903920043795000,9.711794921875,-2.2279882431030273,-0.768446683883667,0.8274608850479126
1760903920063173400,9.73117333984375,-2.6698079109191895,-0.25890064239501953,2.327157974243164
1760903920072862500,9.740862548828124,-1.8821592330932617,0.5093424320220947,2.6081314086914062
1760903920082551600,9.750551513671875,-1.0050840377807617,0.545020580291748,1.9215399026870728
1760903920092240600,9.76024072265625,-1.169875144958496,0.010616779327392578,1.1234632730484009
1760903920101930000,9.769929931640625,-2.0404701232910156,-0.480396032333374,0.36904358863830566
1760903920111619000,9.779619140625,-2.6608505249023438,-0.8033018112182617,-0.42086273431777954
1760903920121308200,9.78930810546875,-2.759927272796631,-1.1956382989883423,-1.2667005062103271
1760903920130997500,9.79899755859375,-2.4929304122924805,-1.6957322359085083,-1.9535545110702515
1760903920140686600,9.8086865234375,-2.1801185607910156,-1.7611229419708252,-1.902804970741272
1760903920150375700,9.818375732421876,-1.6011319160461426,-0.9368789196014404,-1.500350832939148
1760903920160065000,9.82806494140625,-1.5302681922912598,-0.12588882446289062,-0.8024130463600159
1760903920179443200,9.847443115234375,-0.44384193420410156,0.9566128253936768,1.3427684307098389
1760903920189132500,9.857132568359376,-0.13077640533447266,1.1450915336608887,1.9071046113967896
1760903920198821600,9.866821533203124,-0.008411407470703125,1.296074628829956,2.0100927352905273
1760903920208510700,9.8765107421875,0.05273723602294922,1.3995604515075684,1.5717251300811768
1760903920218199800,9.88619970703125,0.1430215835571289,1.1994972229003906,0.8023027181625366
1760903920227889200,9.89588916015625,0.24962615966796875,1.0225169658660889,-0.038413986563682556
1760903920237578200,9.905578125,0.11376476287841797,0.8348584175109863,-0.7400091290473938
1760903920247267300,9.915267333984374,0.5203781127929688,0.4550900459289551,-1.267371416091919
1760903920256956700,9.924956787109375,1.3979673385620117,0.42673563957214355,-0.5793303847312927
1760903920266645800,9.934645751953125,1.9925622940063477,0.6729850769042969,-0.4456607401371002
1760903920276334800,9.9443349609375,1.871720314025879,0.5560667514801025,-0.4445451498031616
1760903920286024000,9.95402392578125,1.2571735382080078,0.26176929473876953,-0.5792674422264099
1760903920295713300,9.96371337890625,0.7989025115966797,0.10449481010437012,-0.6563315391540527
1760903920305402400,9.97340234375,0.72515869140625,0.19859743118286133,-0.499317467212677
1760903920315091500,9.983091552734376,0.9346513748168945,0.3283514976501465,-0.2033112347126007
1760903920324780800,9.99278076171875,1.302328109741211,0.28030991554260254,0.06414888799190521
1760903920334470000,10.002469970703125,1.6221723556518555,0.11853814125061035,0.2290233075618744
1760903920344159000,10.012158935546875,1.8225584030151367,-0.1468791961669922,0.0926772803068161
1760903920353848000,10.02184814453125,2.2861576080322266,-0.3543243408203125,-0.005174770951271057
1760903920363537400,10.031537353515626,2.807845115661621,-0.5298564434051514,0.2207745611667633
1760903920373226500,10.0412265625,3.1683597564697266,-0.6462539434432983,0.5024886131286621
1760903920382915600,10.05091552734375,3.0816593170166016,-0.7464985847473145,0.6011465191841125
1760903920392605000,10.06060498046875,2.6441001892089844,-0.7447164058685303,0.5421011447906494
1760903920402294000,10.0702939453125,2.166140556335449,-0.5537071228027344,0.4190961718559265
1760903920411983000,10.079983154296874,1.6799097061157227,-0.27508115768432617,0.18278008699417114
1760903920421672400,10.08967236328125,1.2267017364501953,-0.09891986846923828,-0.06789609789848328
1760903920431361500,10.099361572265625,0.9007139205932617,-0.35737085342407227,-0.14426453411579132
1760903920441050600,10.109050537109376,1.1740894317626953,-0.6505947113037109,0.4021287262439728
1760903920450739700,10.11873974609375,1.5064544677734375,-0.8942216634750366,1.0468165874481201
1760903920460429000,10.128428955078125,1.6213445663452148,-1.2099671363830566,1.295389175415039
1760903920470118100,10.1381181640625,1.371476173400879,-1.5266916751861572,1.32425057888031
1760903920479807200,10.14780712890625,0.8342218399047852,-1.868587613105774,1.26174795627594
1760903920489496300,10.157496337890626,0.18715572357177734,-2.1223983764648438,1.0458812713623047
1760903920499185700,10.167185546875,-0.29215526580810547,-2.219268560409546,0.7360581159591675
1760903920508874800,10.176874755859375,-0.5223398208618164,-2.1580255031585693,0.5995169281959534
1760903920518563800,10.186563720703125,-0.47457408905029297,-1.9613876342773438,0.5992525815963745
1760903920528253200,10.196253173828126,-0.2300252914428711,-1.5032317638397217,0.7819217443466187
1760903920537942300,10.2059423828125,0.27372264862060547,-0.8779311180114746,1.1380422115325928
1760903920547631400,10.21563134765625,0.8364276885986328,-0.14152812957763672,1.530623435974121
1760903920557320400,10.225320556640625,1.2486867904663086,0.45992112159729004,1.9162781238555908
1760903920567009800,10.235009765625,1.205458641052246,0.7838010787963867,2.0305380821228027
1760903920576699000,10.244698974609374,0.7024965286254883,0.8000938892364502,1.687459945678711
1760903920586388000,10.254387939453125,0.036163330078125,0.641556978225708,1.192417860031128
1760903920596077000,10.2640771484375,-0.43080615997314453,0.4588778018951416,0.7782455086708069
1760903920605766400,10.273766357421875,-0.9622297286987305,0.1645975112915039,0.314811646938324
1760903920615455500,10.28345556640625,-1.592573642730713,-0.20340633392333984,-0.19563508033752441
1760903920625144600,10.29314453125,-2.0841574668884277,-0.43952012062072754,-0.5392411947250366
1760903920634833700,10.302833740234375,-2.7589263916015625,-0.19052505493164062,-0.8352307677268982
1760903920644523000,10.31252294921875,-2.662569046020508,0.07847332954406738,-0.813325047492981
1760903920654212000,10.322212158203126,-1.9483323097229004,0.331226110458374,-0.0067365169525146484
1760903920663901200,10.331901123046874,-1.379948616027832,0.33954644203186035,0.6597939729690552
1760903920673590500,10.341590576171875,-1.0182170867919922,0.28272199630737305,0.9726812839508057
1760903920683279600,10.351279541015625,-0.8189163208007812,0.282989501953125,1.1963099241256714
1760903920702657800,10.37065771484375,-0.7670373916625977,0.0382997989654541,1.3723742961883545
1760903920712347100,10.38034716796875,-1.0100517272949219,-0.117401123046875,1.0943152904510498
1760903920722036200,10.3900361328125,-1.4346246719360352,-0.12974905967712402,0.7087762355804443
1760903920731725300,10.399725341796875,-1.8934073448181152,-0.13607573509216309,0.19533061981201172
1760903920751103700,10.419103759765624,-1.7965478897094727,0.044812917709350586,0.03877556324005127
1760903920760792800,10.428792724609375,-1.44120454788208,0.16275548934936523,-0.011590123176574707
1760903920770482000,10.43848193359375,-1.1004362106323242,0.35712146759033203,0.050568342208862305
1760903920780171000,10.4481708984375,-0.8743457794189453,0.6168496608734131,-0.053540706634521484
1760903920789860400,10.4578603515625,-0.7820415496826172,0.6988422870635986,-0.2381840944290161
1760903920799549400,10.467549560546875,-0.7182712554931641,0.7180287837982178,-0.35114455223083496
1760903920809238500,10.477238525390625,-0.48708343505859375,0.8752706050872803,-0.3718198537826538
1760903920818927600,10.486927734375,-0.2270183563232422,1.1660645008087158,-0.5594300031661987
1760903920828617000,10.496616943359374,0.17681884765625,1.486879825592041,-0.3431723117828369
1760903920838306000,10.50630615234375,0.2080211639404297,1.6365129947662354,-0.06171858310699463
1760903920847995100,10.5159951171875,-0.03368663787841797,1.6875147819519043,0.17188036441802979
1760903920857684200,10.525684326171875,-0.32969093322753906,1.5864019393920898,0.1819913387298584
1760903920867373300,10.535373291015626,-0.518519401550293,1.3826560974121094,0.09412646293640137
1760903920877062700,10.545062744140624,-0.5716371536254883,1.3243505954742432,-0.10576045513153076
1760903920886751700,10.554751708984375,-0.3795747756958008,1.1581838130950928,-0.24583733081817627
1760903920896440800,10.56444091796875,-0.22568035125732422,0.7983753681182861,-0.45892417430877686
1760903920906130000,10.5741298828125,0.4019889831542969,0.46573710441589355,-0.6990131139755249
1760903920915819300,10.5838193359375,1.3289432525634766,0.2584342956542969,-0.8766689300537109
1760903920925508400,10.59350830078125,2.0514535903930664,0.3079080581665039,-0.8656313419342041
1760903920935197400,10.603197509765625,2.0257787704467773,0.47158265113830566,-0.9261128902435303
1760903920944886500,10.612886474609375,1.7008819580078125,0.739363431930542,-1.02069091796875
1760903920954576000,10.622575927734376,1.3385009765625,1.0180449485778809,-0.681509256362915
1760903920964265000,10.632264892578124,0.8891305923461914,1.3507864475250244,0.13517212867736816
1760903920973954000,10.6419541015625,0.9293403625488281,1.2822537422180176,0.8705621957778931
1760903920983643100,10.65164306640625,1.1610116958618164,0.780329704284668,1.6129844188690186
1760903920993332500,10.66133251953125,1.282419204711914,0.1517040729522705,1.8983819484710693
1760903921003021600,10.671021484375,1.6724748611450195,-0.5294537544250488,1.2770644426345825
1760903921012710700,10.680710693359375,2.032306671142578,-1.2867169380187988,0.3984938859939575
1760903921022399700,10.690399658203125,2.2401723861694336,-1.882082462310791,-0.19118094444274902
1760903921032089000,10.700089111328126,2.670492172241211,-2.1546239852905273,-0.26996809244155884
1760903921041778200,10.709778076171874,2.1755151748657227,-2.68511700630188,-0.25773483514785767
1760903921051467300,10.71946728515625,1.6447114944458008,-2.63002347946167,-0.3187028169631958
1760903921061156400,10.72915625,1.4170417785644531,-2.0455851554870605,-0.3129119873046875
1760903921070845400,10.738845458984375,1.1049633026123047,-1.2052931785583496,0.21586620807647705
1760903921080534800,10.74853466796875,0.5348920822143555,-0.395717978477478,0.5574374794960022
1760903921090223900,10.758223876953124,-0.275421142578125,0.05312180519104004,0.6090273857116699
1760903921099913000,10.767912841796875,-0.6761808395385742,0.22016286849975586,0.4274124205112457
1760903921109602000,10.77760205078125,-0.5377683639526367,0.2127838134765625,0.2325689196586609
1760903921119291400,10.78729150390625,-0.0745248794555664,0.045084595680236816,0.2362585961818695
1760903921128980500,10.79698046875,0.18407058715820312,-0.006579041481018066,0.13078585267066956
1760903921138669600,10.806669677734375,0.3823060989379883,-0.26234984397888184,-0.18821394443511963
1760903921148358700,10.816358642578125,0.4392213821411133,-0.5673103332519531,-0.7229991555213928
1760903921158047700,10.8260478515625,0.8802852630615234,-0.5759278535842896,-1.0819106101989746
1760903921167737000,10.835737060546874,1.2987890243530273,-0.4685138463973999,-1.0836565494537354
1760903921177426200,10.84542626953125,1.4844722747802734,-0.4420158863067627,-1.117111086845398
1760903921187115300,10.855115234375,1.423008918762207,-0.22257578372955322,-1.2139748334884644
1760903921196804400,10.864804443359375,1.076918601989746,0.06574761867523193,-0.8046697974205017
1760903921206493700,10.87449365234375,0.3665037155151367,0.22561180591583252,-0.32887306809425354
1760903921216182800,10.884182861328124,-0.16275596618652344,0.18551599979400635,0.10269031673669815
1760903921225872000,10.893871826171875,-0.477874755859375,0.2619631290435791,0.47479957342147827
1760903921235561000,10.90356103515625,-0.8471918106079102,0.4630995988845825,0.8655719757080078
1760903921245250000,10.91325,-1.2619781494140625,0.3106093406677246,1.1886000633239746
1760903921254939400,10.922939453125,-1.9917011260986328,-0.12159264087677002,1.5833672285079956
1760903921264628500,10.93262841796875,-2.9138784408569336,-0.4735628366470337,1.9343279600143433
1760903921274317600,10.942317626953125,-3.4126691818237305,-0.42754340171813965,2.104816436767578
1760903921284006700,10.952006591796875,-3.2156291007995605,-0.10423672199249268,1.8802614212036133
1760903921293695700,10.96169580078125,-2.738525867462158,0.323386549949646,1.5205459594726562
1760903921303385000,10.971385009765624,-2.2157468795776367,0.3223191499710083,1.0091089010238647
1760903921313074200,10.98107421875,-1.5422964096069336,-0.026194214820861816,0.38105684518814087
1760903921322763300,10.99076318359375,-1.4581356048583984,0.034508466720581055,0.04597996547818184
1760903921332452400,11.000452392578126,-1.3124380111694336,0.09157931804656982,-0.1570276916027069
1760903921342141400,11.010141357421874,-1.3584022521972656,0.27827680110931396,-0.2309643030166626
1760903921351830800,11.019830810546875,-1.3758907318115234,0.30705034732818604,-0.18728065490722656
1760903921361519900,11.029519775390625,-1.3120708465576172,0.13801753520965576,-0.013094425201416016
1760903921371209000,11.039208984375,-1.2143545150756836,0.012749195098876953,0.23237335681915283
1760903921380898000,11.04889794921875,-0.8723487854003906,0.02390432357788086,0.5434025526046753
1760903921390587400,11.05858740234375,-0.37709808349609375,0.1583617925643921,0.8854330778121948
1760903921400276500,11.0682763671875,0.04163360595703125,0.5038139820098877,1.1730011701583862
1760903921409965600,11.077965576171875,0.4403982162475586,0.8631652593612671,1.3876845836639404
1760903921419654700,11.087654541015626,0.7897319793701172,0.9206477403640747,1.232103943824768
1760903921429343700,11.09734375,1.023148536682129,0.7410287857055664,0.7714967727661133
1760903921439032800,11.10703271484375,1.2229785919189453,0.3760979175567627,0.2872757911682129
1760903921448722200,11.11672216796875,1.4620800018310547,0.12714219093322754,-0.008703470230102539
1760903921458411300,11.126411376953126,1.368947982788086,-0.20477056503295898,-0.0766824334859848
1760903921468100400,11.136100341796874,0.7577610015869141,-0.5695711374282837,-0.17812120914459229
1760903921477789400,11.14578955078125,0.18712234497070312,-0.6787015795707703,-0.569286048412323
1760903921487478800,11.155478759765625,0.46311092376708984,-0.5107305645942688,-0.9589130282402039
1760903921497168000,11.16516796875,1.3017158508300781,-0.4251982569694519,-0.9858830571174622
1760903921506857000,11.17485693359375,2.386249542236328,-0.2831465005874634,-0.5409709811210632
1760903921516546000,11.184546142578125,3.157804489135742,0.19662976264953613,0.14279970526695251
1760903921526235100,11.194235107421875,2.987656593322754,0.103629469871521,0.6064744591712952
1760903921535924500,11.203924560546875,2.4183349609375,-0.22784268856048584,0.7155746221542358
1760903921545613600,11.213613525390626,1.7090263366699219,-0.47181272506713867,0.5418696403503418
1760903921555302700,11.223302734375,1.3086748123168945,-0.4358915090560913,0.15800507366657257
1760903921564991700,11.23299169921875,1.220871925354004,-0.2325669527053833,-0.1919238269329071
1760903921574680800,11.242680908203125,0.9335727691650391,-0.09703600406646729,-0.2524127960205078
1760903921584370000,11.252369873046876,0.9613418579101562,-0.1169888973236084,-0.30744075775146484
1760903921594059300,11.262059326171874,0.28574466705322266,-0.20038068294525146,0.1479114592075348
1760903921603748400,11.271748291015625,0.0678110122680664,-0.3351130485534668,0.4157356321811676
1760903921613437400,11.2814375,0.22994041442871094,-0.3518449068069458,0.6902470588684082
1760903921623126500,11.29112646484375,0.1080770492553711,-0.5310335159301758,1.1918977499008179
1760903921632815600,11.300815673828126,0.10387992858886719,-0.763839602470398,1.3867305517196655
1760903921642504700,11.310504638671874,-0.05495262145996094,-1.265143632888794,1.3166323900222778
1760903921652194000,11.320194091796875,-0.5723285675048828,-1.616780161857605,1.2794251441955566
1760903921661883100,11.329883056640625,-0.6832408905029297,-1.8445556163787842,0.9259414672851562
1760903921671572200,11.339572265625,-0.9137697219848633,-2.0959041118621826,0.6713992953300476
1760903921681261300,11.34926123046875,-1.1920080184936523,-2.5837326049804688,0.3680654466152191
1760903921690950400,11.358950439453125,-1.1547908782958984,-2.372044086456299,0.24255788326263428
1760903921700639700,11.3686396484375,-0.6884841918945312,-1.9499003887176514,0.12843167781829834
1760903921710328800,11.378328857421875,-0.37662792205810547,-1.4513649940490723,0.33588674664497375
1760903921720018000,11.388017822265626,-0.29976940155029297,-1.0820269584655762,0.7049418687820435
1760903921729707000,11.39770703125,0.12522411346435547,-0.4007169008255005,0.8238261342048645
1760903921739396000,11.40739599609375,0.658869743347168,0.0096968412399292,1.1135339736938477
1760903921749085400,11.41708544921875,0.9383411407470703,0.2416400909423828,1.5139645338058472
1760903921758774500,11.4267744140625,1.088653564453125,0.388003945350647,1.500072956085205
1760903921768463600,11.436463623046874,1.0580120086669922,0.4561723470687866,1.1993227005004883
1760903921778152700,11.446152587890625,0.9095172882080078,0.42511892318725586,0.69283527135849
1760903921787841800,11.455841796875,0.6580963134765625,0.32302021980285645,0.24990516901016235
1760903921797531000,11.46553076171875,0.31357860565185547,0.2418689727783203,0.05905407667160034
1760903921807220200,11.47522021484375,-0.22899913787841797,0.24646759033203125,0.14084693789482117
1760903921816909300,11.484909423828125,-0.7928743362426758,0.4169069528579712,0.43414634466171265
1760903921826598400,11.494598388671875,-1.144744873046875,0.7049009799957275,0.503894567489624
1760903921836287500,11.50428759765625,-1.4529590606689453,0.4856431484222412,0.19895866513252258
1760903921845976600,11.5139765625,-1.7083415985107422,0.2690771818161011,-0.05200773477554321
1760903921855665700,11.523665771484374,-1.4436759948730469,0.2702575922012329,-0.4401565194129944
1760903921865355000,11.53335498046875,-1.1238250732421875,0.05472588539123535,-0.40050554275512695
1760903921875044000,11.543044189453125,-1.0164413452148438,-0.04181087017059326,-0.21978594362735748
1760903921884733200,11.552733154296876,-1.0924320220947266,0.015186429023742676,-0.2360282838344574
1760903921894422300,11.56242236328125,-1.3034439086914062,0.17825162410736084,0.24096432328224182
1760903921904111400,11.572111328125,-1.376988410949707,0.35171377658843994,0.1258436143398285
1760903921913800400,11.581800537109375,-1.4420461654663086,0.40067875385284424,0.1604911983013153
1760903921923489800,11.59148974609375,-1.6174077987670898,0.3999922275543213,0.32260602712631226
1760903921933179000,11.601178955078124,-1.4296674728393555,0.6757264137268066,-0.0542256236076355
1760903921942868000,11.610867919921875,-1.1082210540771484,0.7165216207504272,-0.5749387741088867
1760903921952557000,11.62055712890625,-0.6909360885620117,0.6901520490646362,-0.8200289011001587
1760903921962246100,11.63024609375,-0.0964975357055664,0.6495044231414795,-0.9003998041152954
1760903921971935200,11.639935302734376,0.36936283111572266,0.4955648183822632,-0.6505270004272461
1760903921981624600,11.64962451171875,0.7357397079467773,0.4265012741088867,-0.31226789951324463
1760903921991313700,11.659313720703125,1.0697755813598633,0.4402672052383423,0.05966213345527649
1760903922001002800,11.669002685546875,1.3427972793579102,0.6409624814987183,0.3849756121635437
1760903922010691800,11.67869189453125,1.5643529891967773,0.8666459321975708,0.7354414463043213
1760903922020381000,11.688380859375,1.7296199798583984,1.057799220085144,0.8425136804580688
1760903922030070000,11.698070068359375,1.6714859008789062,1.0760908126831055,0.6860829591751099
1760903922039759400,11.70775927734375,1.3045454025268555,1.0512548685073853,0.4568726420402527
1760903922049448400,11.717448486328125,0.7247800827026367,0.9929004907608032,0.22810028493404388
1760903922059137500,11.727137451171876,0.2803688049316406,1.0347703695297241,0.12022466957569122
1760903922068826600,11.73682666015625,0.1372385025024414,1.0079290866851807,0.09329064935445786
1760903922078515700,11.746515625,0.16044330596923828,0.8186681270599365,0.04939598590135574
1760903922088204800,11.756204833984375,0.3637275695800781,0.6294605731964111,-0.031359583139419556
1760903922097894100,11.76589404296875,0.5750093460083008,0.36695659160614014,-0.18917685747146606
1760903922107583200,11.775583251953124,0.6706600189208984,0.13832008838653564,-0.29063689708709717
1760903922117272300,11.785272216796875,0.6036663055419922,0.09873461723327637,-0.19418847560882568
1760903922126961400,11.79496142578125,0.637446403503418,0.2884547710418701,-0.04334643483161926
1760903922136650500,11.804650390625,0.6433115005493164,0.5711385011672974,-0.13947457075119019
1760903922146339600,11.814339599609376,0.7171363830566406,0.8588583469390869,-0.38495883345603943
1760903922156028700,11.824028564453124,0.7204990386962891,0.9782509803771973,-0.5409929752349854
1760903922165718000,11.833718017578125,0.6723613739013672,0.9878218173980713,-0.3531903922557831
1760903922175407000,11.843406982421875,0.6676778793334961,1.0912213325500488,0.044791072607040405
1760903922185096200,11.85309619140625,0.5046215057373047,1.0975823402404785,0.609204888343811
1760903922194785300,11.862785400390624,0.38282203674316406,0.8305509090423584,1.2001903057098389
1760903922204474400,11.872474365234375,0.4592161178588867,0.07326793670654297,1.529160976409912
1760903922214163500,11.88216357421875,0.7721042633056641,-0.8648397922515869,1.3152481317520142
1760903922223852800,11.891852783203126,1.15045166015625,-1.620774269104004,0.6807913184165955
1760903922233542000,11.9015419921875,1.2945375442504883,-2.175607442855835,0.01673048734664917
1760903922243231000,11.91123095703125,1.1051654815673828,-2.513144016265869,-0.38887637853622437
1760903922252920000,11.920920166015625,0.6069326400756836,-2.577434539794922,-0.5302271842956543
1760903922262609200,11.930609130859375,0.05304718017578125,-2.42034649848938,-0.5336815714836121
1760903922272298200,11.94029833984375,-0.3184633255004883,-2.101271629333496,-0.3575062155723572
1760903922281987300,11.9499873046875,-0.4852027893066406,-1.6824802160263062,0.11224207282066345
1760903922291676700,11.9596767578125,-0.5295190811157227,-1.3801908493041992,0.5847822427749634
1760903922301365800,11.96936572265625,-0.48992252349853516,-1.2031136751174927,0.7589576840400696
1760903922311054800,11.979054931640626,-0.28975963592529297,-1.0381158590316772,0.7000628709793091
1760903922320744000,11.988743896484374,-0.10993671417236328,-0.9365603923797607,0.5613253712654114
1760903922330433000,11.99843310546875,-0.06878471374511719,-0.926161527633667,0.3994109332561493
1760903922340122000,12.0081220703125,-0.2703275680541992,-0.8950716257095337,0.4363109767436981
1760903922349811500,12.0178115234375,-0.5655679702758789,-0.7547922134399414,0.4097912609577179
1760903922359500500,12.02750048828125,-0.8874616622924805,-0.6063137054443359,0.3293876349925995
1760903922369189600,12.037189697265624,-1.2124433517456055,-0.5152422189712524,0.3016994595527649
1760903922378878700,12.046878662109375,-1.474212646484375,-0.39778006076812744,0.34162890911102295
1760903922388567800,12.05656787109375,-1.6735763549804688,-0.21727228164672852,0.5303882360458374
1760903922398257000,12.0662568359375,-1.7971062660217285,0.0010123252868652344,0.8603964447975159
1760903922407946000,12.075946044921874,-1.8218684196472168,0.1645505428314209,1.072891354560852
1760903922417635000,12.085635009765625,-1.7769947052001953,0.2026357650756836,0.962522029876709
1760903922427324400,12.095324462890625,-1.6477065086364746,0.15114450454711914,0.6670236587524414
1760903922437013500,12.105013427734375,-1.4759292602539062,0.01964855194091797,0.4307026267051697
1760903922446702600,12.11470263671875,-1.4182071685791016,-0.100677490234375,0.21423345804214478
1760903922456391700,12.1243916015625,-1.4068851470947266,-0.22176361083984375,0.04375762492418289
1760903922466080800,12.134080810546875,-1.4466009140014648,-0.281879186630249,-0.16584785282611847
1760903922475769900,12.143769775390625,-1.5089139938354492,-0.3325674533843994,-0.36070823669433594
1760903922485459200,12.153459228515626,-1.5513954162597656,-0.3619511127471924,-0.49926161766052246
1760903922495148300,12.163148193359374,-1.445744514465332,-0.3152201175689697,-0.4886334538459778
1760903922504837400,12.17283740234375,-1.2739839553833008,-0.2476038932800293,-0.339554101228714
1760903922514526500,12.1825263671875,-1.0844345092773438,-0.17644548416137695,-0.17348802089691162
1760903922524215600,12.192215576171876,-0.9298429489135742,-0.05322146415710449,-0.046679213643074036
1760903922533904600,12.201904541015624,-0.7908191680908203,0.10684609413146973,0.08554799854755402
1760903922543593700,12.21159375,-0.6095485687255859,0.25403809547424316,0.19084739685058594
1760903922553283000,12.221282958984375,-0.4045076370239258,0.29477763175964355,0.16800037026405334
1760903922562972200,12.23097216796875,-0.25609874725341797,0.3501918315887451,0.01677773892879486
1760903922572661200,12.2406611328125,-0.216094970703125,0.40833544731140137,-0.09629794955253601
1760903922582350300,12.250350341796874,-0.36507606506347656,0.5109407901763916,-0.10172189772129059
1760903922592039400,12.260039306640625,-0.6406049728393555,0.6581499576568604,0.0015442520380020142
1760903922601728500,12.269728515625,-0.9805822372436523,0.8269109725952148,0.1289570927619934
1760903922611417900,12.27941796875,-1.2755136489868164,0.9614925384521484,0.239333838224411
1760903922621107000,12.28910693359375,-1.5023493766784668,1.1122007369995117,0.35842156410217285
1760903922630796000,12.298796142578125,-1.552116870880127,1.1953868865966797,0.36479395627975464
1760903922640485000,12.308485107421875,-1.3542051315307617,1.1846075057983398,0.20927655696868896
1760903922650174200,12.31817431640625,-0.9572982788085938,1.0003888607025146,0.04469840228557587
1760903922659863300,12.32786328125,-0.3812427520751953,0.859569787979126,0.08939287811517715
1760903922669552400,12.337552490234375,0.3016538619995117,0.7636644840240479,0.21598297357559204
1760903922679241500,12.347241455078125,0.9906730651855469,0.6132917404174805,0.34120187163352966
1760903922688930800,12.356930908203125,1.5807647705078125,0.5420641899108887,0.4099089205265045
1760903922698620000,12.366619873046876,2.1060314178466797,0.6670846939086914,0.5032334327697754
1760903922708309000,12.37630908203125,2.4052953720092773,0.8790132999420166,0.5490027070045471
1760903922717998000,12.385998046875,2.3604774475097656,0.960181713104248,0.641463577747345
1760903922727687200,12.395687255859375,2.120267868041992,0.8971593379974365,0.902790904045105
1760903922737376500,12.40537646484375,2.0377464294433594,0.9218590259552002,1.0720479488372803
1760903922747065600,12.415065673828124,2.3220014572143555,0.8309366703033447,1.1743375062942505
1760903922756754700,12.424754638671875,2.8909502029418945,0.40523505210876465,1.2408519983291626
1760903922766443800,12.43444384765625,3.4962968826293945,-0.3043510913848877,1.0867239236831665
1760903922776132900,12.4441328125,3.976743698120117,-0.9672189950942993,0.8177288770675659
1760903922785822000,12.453822021484376,4.286506652832031,-1.4848220348358154,0.524702787399292
1760903922795511000,12.463510986328124,4.060036659240723,-1.8395031690597534,0.37461093068122864
1760903922805200400,12.473200439453125,3.103586196899414,-2.124048948287964,0.5446565747261047
1760903922814889500,12.482889404296875,1.7666006088256836,-2.37770938873291,0.8708811402320862
1760903922824578600,12.49257861328125,0.42026233673095703,-2.5638175010681152,1.2938791513442993
1760903922834267600,12.502267578125,-0.5277719497680664,-2.714895725250244,1.5250743627548218
1760903922843956700,12.511956787109375,-0.9666547775268555,-2.830983877182007,1.4772745370864868
1760903922853645800,12.521645751953125,-0.9806594848632812,-2.782130002975464,1.2061386108398438
1760903922863335000,12.5313349609375,-0.8151111602783203,-2.4997398853302,0.9306410551071167
1760903922873024300,12.541024169921876,-0.47004222869873047,-2.100942611694336,0.6444075107574463
1760903922882713300,12.55071337890625,-0.05885887145996094,-1.5684291124343872,0.5805391073226929
