time,seconds_elapsed,z,y,x
1760966897486005800,0.243005859375,1.186436653137207,-0.40590405464172363,0.11843490600585938
1760966897495693800,0.25269384765625,0.6865968704223633,-0.3331279754638672,0.2010972499847412
1760966897505382000,0.2623818359375,0.13426876068115234,-0.06626629829406738,0.2202444076538086
1760966897515070000,0.272070068359375,-0.546137809753418,0.10421514511108398,0.0024726390838623047
1760966897524758300,0.28175830078125,-0.9992780685424805,0.1572709083557129,-0.6165933609008789
1760966897534446300,0.2914462890625,-0.45580577850341797,0.5434300899505615,-0.5662763118743896
1760966897544134400,0.301134521484375,-0.8549814224243164,0.26591944694519043,-0.49266481399536133
1760966897553822500,0.310822509765625,-1.3442602157592773,0.2841160297393799,-0.4941849708557129
1760966897563510800,0.3205107421875,-1.732945442199707,0.4396693706512451,-0.998021125793457
1760966897573198800,0.33019873046875,-2.295990467071533,0.07149338722229004,-1.5678855180740356
1760966897582887000,0.339886962890625,-2.9363837242126465,-0.502894401550293,-1.931641697883606
1760966897592575000,0.349574951171875,-3.675708293914795,-0.9973607063293457,-2.232886552810669
1760966897602263300,0.35926318359375,-4.074312686920166,-0.9174034595489502,-2.4421024322509766
1760966897611951400,0.368951416015625,-4.262572765350342,-0.4758477210998535,-2.3072407245635986
1760966897621639400,0.378639404296875,-4.266737461090088,0.048390865325927734,-2.1192221641540527
1760966897631327500,0.388327392578125,-4.119237422943115,0.3581857681274414,-1.8277500867843628
1760966897641015800,0.398015869140625,-3.864175796508789,0.3494384288787842,-1.3015180826187134
1760966897650704000,0.407703857421875,-3.748115062713623,0.13570761680603027,-0.8943683505058289
1760966897660392000,0.417391845703125,-3.723863124847412,-0.15151095390319824,-0.9034680128097534
1760966897670080000,0.427080078125,-3.614229679107666,-0.2206282615661621,-1.3942687511444092
1760966897679768300,0.436768310546875,-3.5019211769104004,-0.09406328201293945,-2.0083673000335693
1760966897689456400,0.446456298828125,-3.324643135070801,0.08339905738830566,-2.347297191619873
1760966897699144400,0.45614453125,-2.728522300720215,0.1822655200958252,-2.5104382038116455
1760966897708832500,0.46583251953125,-1.5067205429077148,0.3742208480834961,-2.138669967651367
1760966897718520800,0.475520751953125,0.6511631011962891,0.9524252414703369,-1.2210609912872314
1760966897728209000,0.485208984375,2.2312889099121094,1.5100202560424805,-0.13228338956832886
1760966897737897000,0.49489697265625,2.7172765731811523,1.740877628326416,0.45453715324401855
1760966897747585000,0.5045849609375,2.7594804763793945,1.7733688354492188,0.4206651449203491
1760966897757273300,0.5142734375,2.193963050842285,1.7061574459075928,-0.01522362232208252
1760966897766961400,0.52396142578125,0.813990592956543,1.6014800071716309,-0.6276443004608154
1760966897776649500,0.5336494140625,-0.38979053497314453,1.357276439666748,-1.3395113945007324
1760966897786337800,0.543337890625,-0.5423569679260254,1.0938811302185059,-1.7892935276031494
1760966897796025900,0.55302587890625,-0.35755348205566406,1.0881857872009277,-1.9830875396728516
1760966897805714000,0.5627138671875,0.6275062561035156,1.5394136905670166,-1.7044880390167236
1760966897815402000,0.572402099609375,1.6001663208007812,2.0962090492248535,-1.073287010192871
1760966897825090300,0.58209033203125,1.3551855087280273,2.2740695476531982,-0.408668577671051
1760966897834778400,0.5917783203125,1.4555158615112305,2.506453514099121,0.006730616092681885
1760966897844466400,0.601466552734375,1.4176063537597656,2.861243724822998,-0.12245547771453857
1760966897854154500,0.611154541015625,0.9236745834350586,3.10959792137146,0.27422207593917847
1760966897863842800,0.6208427734375,0.15322589874267578,3.2096238136291504,0.66232830286026
1760966897873531000,0.63053076171875,-0.7717509269714355,3.140501022338867,0.7110973000526428
1760966897883219000,0.640218994140625,-0.8680419921875,2.8007407188415527,0.20608210563659668
1760966897892907000,0.649906982421875,0.14461517333984375,2.2234978675842285,-0.6298502683639526
1760966897902595300,0.65959521484375,0.09537029266357422,1.6759142875671387,-1.4681953191757202
1760966897912283400,0.669283447265625,-0.7393150329589844,1.7011256217956543,-1.5328162908554077
1760966897921971500,0.678971435546875,-0.5291972160339355,2.207732677459717,-2.280562162399292
1760966897931659800,0.68865966796875,-0.669182300567627,1.9151782989501953,-2.3428642749786377
1760966897941347800,0.698347900390625,-0.8042993545532227,1.494791030883789,-1.8930022716522217
1760966897951036000,0.708035888671875,-0.19827842712402344,0.9071807861328125,-1.744800329208374
1760966897960724000,0.717723876953125,1.1084203720092773,-0.15656471252441406,-2.080659866333008
1760966897970412300,0.727412353515625,2.318333625793457,-1.4453673362731934,-2.8765151500701904
1760966897980100400,0.737100341796875,3.07004451751709,-2.218428373336792,-3.988401412963867
1760966897989788400,0.746788330078125,3.0976486206054688,-2.4401776790618896,-4.672237396240234
1760966897999476500,0.7564765625,2.4771976470947266,-1.8772130012512207,-4.172590732574463
1760966898009164800,0.766164794921875,2.023204803466797,1.2224278450012207,-0.9849215745925903
1760966898018852900,0.775852783203125,2.0083656311035156,5.320680618286133,-1.2367745637893677
1760966898028541000,0.785541015625,2.939805030822754,2.7529234886169434,-2.9321887493133545
1760966898038229200,0.795229248046875,2.8177614212036133,-0.2899751663208008,-0.9948633909225464
1760966898047917300,0.804917236328125,4.652866363525391,0.3799896240234375,-0.21146301925182343
1760966898057605400,0.81460546875,6.278944969177246,1.0144915580749512,-0.28135302662849426
1760966898067293400,0.82429345703125,9.043160438537598,0.10259819030761719,0.06717517971992493
1760966898076981800,0.833981689453125,7.054327964782715,-0.3580002784729004,-0.33830058574676514
1760966898086669800,0.843669921875,6.334181785583496,0.35335874557495117,-0.10616349428892136
1760966898096358000,0.85335791015625,4.791501998901367,1.5357646942138672,1.0128458738327026
1760966898106046000,0.8630458984375,3.082211494445801,2.595296859741211,1.7282761335372925
1760966898115734300,0.872734375,0.4609241485595703,3.326385498046875,1.27438485622406
1760966898125422300,0.88242236328125,-1.2845864295959473,3.270895481109619,-0.18079301714897156
1760966898135110400,0.8921103515625,-1.5446949005126953,2.511385440826416,-1.8008322715759277
1760966898144798500,0.901798583984375,-0.8761587142944336,1.2463135719299316,-2.353598117828369
1760966898154486800,0.91148681640625,0.26949501037597656,0.42134714126586914,-1.6401381492614746
1760966898164174800,0.9211748046875,1.362757682800293,0.5369348526000977,-0.625562310218811
1760966898173863000,0.93086279296875,2.357855796813965,-0.018703460693359375,0.12409671396017075
1760966898183551200,0.94055126953125,3.173643112182617,-1.1649699211120605,0.4307907223701477
1760966898193239300,0.9502392578125,2.988175392150879,-1.8660225868225098,1.0901249647140503
1760966898202927400,0.95992724609375,2.342780113220215,-1.78859281539917,1.5814547538757324
1760966898212615400,0.969615478515625,1.3503437042236328,-2.1276302337646484,1.545819640159607
1760966898222303500,0.979303466796875,-0.4533100128173828,-2.494488000869751,0.6826625466346741
1760966898231991800,0.98899169921875,-3.1048636436462402,-2.7582039833068848,-0.31089961528778076
1760966898241680000,0.998679931640625,-5.553302764892578,-3.1019082069396973,-0.21759340167045593
1760966898251368000,1.008367919921875,-6.808502197265625,-3.0936830043792725,0.6648007035255432
1760966898261056300,1.01805615234375,-6.990800857543945,-3.320427417755127,2.3652725219726562
1760966898270744300,1.027744384765625,-6.220088481903076,-3.5772135257720947,3.874997615814209
1760966898280432400,1.037432373046875,-5.320011615753174,-3.74937105178833,4.121667861938477
1760966898290120400,1.047120361328125,-4.626053810119629,-4.432559490203857,3.640986442565918
1760966898299808800,1.056808837890625,-3.3990836143493652,-5.518028259277344,2.184497117996216
1760966898309496800,1.066496826171875,-2.3545241355895996,-6.610692977905273,0.6532720327377319
1760966898319185000,1.076184814453125,-2.249688148498535,-7.286639213562012,-0.18510526418685913
1760966898328873200,1.085873291015625,-3.2304182052612305,-7.105838775634766,-0.953970193862915
1760966898338561300,1.095561279296875,-4.005219459533691,-6.7189154624938965,-0.998214840888977
1760966898348249300,1.105249267578125,-4.007194519042969,-5.95739221572876,0.25217318534851074
1760966898357937400,1.1149375,-3.786752939224243,-4.5492329597473145,2.356372833251953
1760966898367625500,1.12462548828125,-2.960263729095459,-3.301685333251953,4.246555328369141
1760966898377313800,1.134313720703125,-3.098999500274658,-2.7105674743652344,4.940126895904541
1760966898387001900,1.144001953125,-3.877234935760498,-1.8373584747314453,4.553376197814941
1760966898396690000,1.15368994140625,-3.6046135425567627,-0.34962034225463867,3.6911168098449707
1760966898406378200,1.163378173828125,-1.7000441551208496,0.8493480682373047,3.4828431606292725
1760966898416066300,1.17306640625,1.1843175888061523,1.0574288368225098,3.8886806964874268
1760966898425754400,1.18275439453125,4.23689079284668,0.9186968803405762,4.751387596130371
1760966898435442400,1.1924423828125,7.1915202140808105,0.5692787170410156,5.911020278930664
1760966898445130800,1.202130859375,10.551076889038086,0.20015811920166016,7.239192008972168
1760966898454818800,1.21181884765625,13.695362091064453,0.6677689552307129,8.512109756469727
1760966898464507000,1.2215068359375,14.85181999206543,1.6723027229309082,8.230419158935547
1760966898474195200,1.2311953125,13.002860069274902,2.785228729248047,6.458657264709473
1760966898483883300,1.24088330078125,8.860068321228027,4.0368146896362305,4.497920513153076
1760966898493571300,1.2505712890625,4.0970611572265625,4.983666896820068,3.456817626953125
1760966898503259400,1.26025927734375,0.5612897872924805,5.619107246398926,2.897315263748169
1760966898512947500,1.269947509765625,-2.00877046585083,5.367105484008789,1.9786779880523682
1760966898522635800,1.2796357421875,-3.3601179122924805,4.041771411895752,0.3850085735321045
1760966898532323800,1.28932373046875,-3.4098238945007324,2.372988700866699,-1.642135739326477
1760966898542012000,1.299011962890625,-2.1163063049316406,0.7212791442871094,-3.6280035972595215
1760966898551700200,1.3087001953125,-0.4698820114135742,-0.608555793762207,-5.036064147949219
1760966898561388300,1.31838818359375,1.0610647201538086,-0.9507455825805664,-5.309431076049805
1760966898571076400,1.328076416015625,1.9326257705688477,-0.6278619766235352,-3.984691619873047
1760966898580764400,1.337764404296875,1.6263313293457031,-0.12669086456298828,-1.777266263961792
1760966898590452700,1.34745263671875,0.14772605895996094,0.4016122817993164,-0.41163206100463867
1760966898600140800,1.357140869140625,-1.7655396461486816,0.6150851249694824,-0.8486671447753906
1760966898609828900,1.366828857421875,-3.6029343605041504,-0.2514657974243164,-2.6398372650146484
1760966898619517000,1.376516845703125,-5.7858123779296875,-1.2018358707427979,-3.482775926589966
1760966898629205200,1.386205322265625,-7.212504863739014,-1.6296532154083252,-2.777250051498413
1760966898638893300,1.395893310546875,-7.842230319976807,-1.662233829498291,-2.3898308277130127
1760966898648581400,1.405581298828125,-7.880017280578613,-2.1483585834503174,-2.668229818344116
1760966898658269700,1.415269775390625,-7.09751558303833,-2.8484578132629395,-3.669656753540039
1760966898667957800,1.424957763671875,-5.920773983001709,-3.122328758239746,-4.097297668457031
1760966898677645800,1.434645751953125,-4.620380401611328,-3.104667901992798,-4.193270683288574
1760966898687334000,1.444333984375,-3.912837505340576,-2.7415237426757812,-4.989067554473877
1760966898697022200,1.454022216796875,-4.070010662078857,-2.2052512168884277,-6.201332092285156
1760966898706710300,1.463710205078125,-4.939451217651367,-2.400811195373535,-6.538113117218018
1760966898716398300,1.4733984375,-5.932284355163574,-2.4687960147857666,-5.478711128234863
1760966898726086700,1.483086669921875,-4.198233127593994,-1.4959228038787842,-4.454873561859131
1760966898735774700,1.492774658203125,-3.631721019744873,-0.07127237319946289,-3.4013571739196777
1760966898745462800,1.502462890625,-2.5048704147338867,2.192239284515381,-3.57985782623291
1760966898755150800,1.51215087890625,-2.5158863067626953,3.1633071899414062,-2.3020901679992676
1760966898764839200,1.521839111328125,-2.53410005569458,4.6432390213012695,-0.9367176294326782
1760966898774527200,1.53152734375,-2.45443058013916,6.349400043487549,-1.68244469165802
1760966898784215300,1.54121533203125,0.17952680587768555,7.261222839355469,-2.8348288536071777
1760966898793903400,1.5509033203125,5.076879024505615,5.864553928375244,-2.2200450897216797
1760966898813279700,1.57027978515625,16.83635902404785,0.02497386932373047,0.37774407863616943
1760966898822967800,1.5799677734375,20.24287223815918,-0.6800980567932129,1.0288833379745483
1760966898832656100,1.58965625,20.189483642578125,-1.1526281833648682,0.984920859336853
1760966898842344200,1.59934423828125,17.36526870727539,-1.1602861881256104,0.18868529796600342
1760966898852032300,1.6090322265625,13.494536399841309,-0.7757201194763184,-1.079406499862671
1760966898861720300,1.61872021484375,9.502298355102539,-0.4436917304992676,-1.7874726057052612
1760966898871408400,1.628408447265625,6.061155319213867,0.09724283218383789,-1.1813926696777344
1760966898881096700,1.6380966796875,3.6346349716186523,0.5936150550842285,-0.4262060225009918
1760966898890784800,1.64778466796875,1.9196128845214844,0.7018027305603027,0.19660979509353638
1760966898900472800,1.657472900390625,0.8309106826782227,0.35019683837890625,1.2356905937194824
1760966898910161200,1.6671611328125,-0.23099803924560547,0.2054309844970703,2.3575515747070312
1760966898919849200,1.67684912109375,-1.3259172439575195,0.11927938461303711,3.504908323287964
1760966898929537300,1.686537353515625,-2.3846535682678223,-0.10302162170410156,4.238974094390869
1760966898939225300,1.696225341796875,-3.935615062713623,-0.28517866134643555,4.442960739135742
1760966898948913700,1.70591357421875,-5.766518592834473,-0.4358830451965332,4.236681938171387
1760966898958601700,1.715601806640625,-7.1909379959106445,-1.3330426216125488,3.2239437103271484
1760966898968289800,1.725289794921875,-8.22231388092041,-2.706601142883301,1.900909423828125
1760966898977978000,1.73497802734375,-7.964366436004639,-3.974590301513672,0.8936575651168823
1760966898987666200,1.744666259765625,-7.264822483062744,-4.985572338104248,0.14490771293640137
1760966898997354200,1.754354248046875,-6.2710466384887695,-5.923636436462402,0.04342031478881836
1760966899007042300,1.764042236328125,-5.232295989990234,-6.88314151763916,0.1805962324142456
1760966899016730600,1.773730712890625,-4.357089519500732,-7.73909330368042,0.29767632484436035
1760966899026418700,1.783418701171875,-4.459630966186523,-8.199491500854492,0.3824721574783325
1760966899036106800,1.793106689453125,-5.476202011108398,-7.864602088928223,0.7453629970550537
1760966899045794800,1.802794921875,-6.408044815063477,-7.329732894897461,1.2487804889678955
1760966899055483100,1.812483154296875,-6.873101234436035,-6.905107498168945,1.589856743812561
1760966899065171200,1.822171142578125,-6.610316276550293,-6.3250226974487305,1.4884523153305054
1760966899074859300,1.831859375,-5.8671112060546875,-5.665386199951172,1.195756196975708
1760966899084547300,1.84154736328125,-4.841242790222168,-4.760341167449951,1.2653672695159912
1760966899094235600,1.851235595703125,-2.8968052864074707,-3.6381235122680664,1.7579293251037598
1760966899103923700,1.860923828125,-0.6376910209655762,-2.4524099826812744,2.9220614433288574
1760966899113611800,1.87061181640625,-0.3019404411315918,-1.057755470275879,4.837399959564209
1760966899123300000,1.880300048828125,-2.3502511978149414,0.3375086784362793,6.335951328277588
1760966899132988200,1.88998828125,-3.15299654006958,1.764286994934082,6.2602996826171875
1760966899142676200,1.89967626953125,-0.8181161880493164,2.402555465698242,4.814624309539795
1760966899152364300,1.9093642578125,3.357889175415039,1.9320292472839355,3.9369025230407715
1760966899162052400,1.91905224609375,7.06105899810791,1.302361011505127,4.030313968658447
1760966899171740700,1.92874072265625,9.822103500366211,1.1154403686523438,3.912332773208618
1760966899181428700,1.9384287109375,11.406209945678711,0.6235637664794922,3.9876773357391357
1760966899191116800,1.94811669921875,12.6095552444458,-0.0209808349609375,3.0858733654022217
1760966899200805000,1.95780517578125,12.775397300720215,-0.3810844421386719,1.1005182266235352
1760966899210493200,1.9674931640625,11.368260383605957,0.019938945770263672,0.3927900791168213
1760966899220181200,1.97718115234375,8.288076400756836,1.3953557014465332,0.9465141296386719
1760966899229869300,1.986869384765625,4.53193473815918,2.498599052429199,0.9883172512054443
1760966899239557600,1.9965576171875,1.9439659118652344,2.994896411895752,0.432405948638916
1760966899249245700,2.00624560546875,0.36581897735595703,3.2027931213378906,-0.09664773941040039
1760966899258933800,2.015933837890625,-0.7300777435302734,3.5165867805480957,0.03098750114440918
1760966899268621800,2.025621826171875,-1.7147130966186523,3.793771266937256,0.2343606948852539
1760966899278310100,2.03531005859375,-2.441307544708252,3.9372754096984863,0.2750225067138672
1760966899287998200,2.044998291015625,-2.8618717193603516,3.794950485229492,-0.1633739471435547
1760966899297686300,2.054686279296875,-3.08158016204834,3.5695245265960693,-0.9158669710159302
1760966899307374300,2.064374267578125,-3.044433116912842,2.8353593349456787,-1.6632763147354126
1760966899317062700,2.074062744140625,-3.114968776702881,2.0047006607055664,-2.4104807376861572
1760966899326750700,2.083750732421875,-3.9069666862487793,1.3732867240905762,-3.269301414489746
1760966899336438800,2.093438720703125,-3.7784128189086914,0.9185540676116943,-3.8277084827423096
1760966899346126800,2.103126953125,-3.232135772705078,0.530010461807251,-4.581708908081055
1760966899355815200,2.112815185546875,-3.583989143371582,0.1998307704925537,-5.187976837158203
1760966899365503200,2.122503173828125,-4.006791591644287,-0.17342233657836914,-5.658681869506836
1760966899375191300,2.13219140625,-4.090465545654297,-0.41262125968933105,-5.7784295082092285
1760966899384879400,2.14187939453125,-3.4095287322998047,-0.7102982997894287,-6.150254249572754
1760966899394567700,2.151567626953125,-2.0820140838623047,-1.024613618850708,-6.491639137268066
1760966899404255700,2.161255859375,-0.6698102951049805,-1.1830101013183594,-6.5879034996032715
1760966899413943800,2.17094384765625,0.21802330017089844,-0.9649357795715332,-5.841615676879883
1760966899423632000,2.1806318359375,0.22296142578125,-0.3392617702484131,-5.226508140563965
1760966899433320200,2.1903203125,-0.03906536102294922,0.2940247058868408,-5.285428524017334
1760966899443008300,2.20000830078125,-0.04423713684082031,1.2424445152282715,-5.4556684494018555
1760966899452696300,2.2096962890625,0.12206840515136719,2.593639850616455,-5.378511428833008
1760966899462384400,2.21938427734375,-0.30005550384521484,3.535733222961426,-4.313855171203613
1760966899472072700,2.22907275390625,-0.5270833969116211,3.9798426628112793,-2.518843412399292
1760966899481760800,2.2387607421875,0.23645973205566406,4.077425003051758,-1.39339017868042
1760966899491448800,2.24844873046875,4.60707950592041,4.134185314178467,-0.9874395132064819
1760966899501137000,2.258136962890625,10.728170394897461,3.122224807739258,-0.056168437004089355
1760966899510825200,2.2678251953125,15.14953899383545,0.5750613212585449,1.0100785493850708
1760966899520513300,2.27751318359375,17.074371337890625,-1.2720260620117188,1.2075282335281372
1760966899530201300,2.287201416015625,15.735323905944824,-1.7704110145568848,0.39400994777679443
1760966899539889400,2.296889404296875,11.745162010192871,-1.9365534782409668,-1.0141005516052246
1760966899549577700,2.30657763671875,7.617074966430664,-1.8096230030059814,-2.0393476486206055
1760966899559265800,2.316265869140625,4.7096147537231445,-1.138305425643921,-1.8438239097595215
1760966899568953900,2.325953857421875,3.9559144973754883,-0.2534017562866211,-0.00437617301940918
1760966899578642000,2.335641845703125,4.141537666320801,0.19410228729248047,1.6235442161560059
1760966899588330200,2.345330322265625,3.4181108474731445,0.21128225326538086,2.2717742919921875
1760966899598018300,2.355018310546875,1.2478675842285156,0.0026612281799316406,2.4272141456604004
1760966899607706400,2.364706298828125,-1.6185111999511719,-0.8020706176757812,1.9511902332305908
1760966899617394400,2.37439453125,-3.88077974319458,-1.7550287246704102,1.161994457244873
1760966899627082800,2.384082763671875,-5.208888053894043,-2.3648016452789307,0.6427152156829834
1760966899636770800,2.393770751953125,-5.93172025680542,-2.931321144104004,0.43705469369888306
1760966899646459000,2.403458984375,-5.713174819946289,-3.637849807739258,0.17839586734771729
1760966899656147000,2.41314697265625,-5.55409574508667,-4.122012615203857,0.5321200489997864
1760966899665835300,2.422835205078125,-5.864686012268066,-4.329618453979492,1.141571044921875
1760966899675523300,2.4325234375,-6.292424201965332,-4.730172634124756,1.6707000732421875
1760966899685211400,2.44221142578125,-6.089718818664551,-5.1843647956848145,1.7665386199951172
1760966899694899500,2.4518994140625,-4.723386764526367,-5.547482967376709,1.972662329673767
1760966899704587800,2.461587890625,-3.6415019035339355,-5.682963848114014,2.7718076705932617
1760966899714275800,2.47127587890625,-3.705104351043701,-5.7389068603515625,3.0662198066711426
1760966899723964000,2.4809638671875,-4.980284214019775,-6.170953750610352,2.563558578491211
1760966899733652000,2.49065185546875,-6.646142959594727,-7.068506240844727,1.4097710847854614
1760966899743340300,2.50034033203125,-7.52393913269043,-7.564232349395752,-0.08231544494628906
1760966899753028400,2.5100283203125,-7.284788131713867,-7.413779258728027,-0.23520267009735107
1760966899762716400,2.51971630859375,-5.089808464050293,-7.045498371124268,1.0826833248138428
1760966899772404500,2.529404541015625,-2.51284122467041,-6.0307135581970215,2.588513135910034
1760966899782092800,2.5390927734375,0.055832862854003906,-4.509892463684082,4.3402628898620605
1760966899791780900,2.54878076171875,2.649691581726074,-2.888942241668701,5.481163501739502
1760966899801469000,2.558468994140625,4.390915870666504,-1.1343708038330078,5.936001300811768
1760966899811157000,2.568156982421875,3.2143783569335938,0.3180232048034668,6.330577850341797
1760966899820845300,2.57784521484375,0.12607574462890625,1.5180158615112305,5.76662540435791
1760966899830533400,2.587533447265625,-2.8989357948303223,3.0010151863098145,3.9841246604919434
1760966899840221400,2.597221435546875,-3.407482624053955,4.265392303466797,2.391772985458374
1760966899849909500,2.606909423828125,-0.36599016189575195,3.784104347229004,2.314208507537842
1760966899859597800,2.616597900390625,5.31306266784668,3.0086488723754883,3.1390058994293213
1760966899869286000,2.626285888671875,11.115649223327637,2.840585231781006,4.2807817459106445
1760966899878974000,2.635973876953125,15.794660568237305,1.9179186820983887,4.612022876739502
1760966899888662000,2.645662109375,19.113475799560547,0.9726552963256836,3.758389711380005
1760966899898350300,2.655350341796875,19.587093353271484,0.9936056137084961,2.2427663803100586
1760966899908038400,2.665038330078125,16.0756893157959,1.679962158203125,1.2616910934448242
1760966899917726500,2.6747265625,10.53217887878418,2.911198616027832,1.0094597339630127
1760966899927414500,2.68441455078125,4.7942094802856445,4.085404872894287,1.3496530055999756
1760966899937102800,2.694102783203125,-0.22216320037841797,4.718502044677734,1.4840149879455566
1760966899946791000,2.703791015625,-3.9163990020751953,4.952443599700928,1.6363348960876465
1760966899956479000,2.71347900390625,-5.7910566329956055,4.324876308441162,1.1900699138641357
1760966899966167000,2.7231669921875,-6.380710601806641,3.1584315299987793,0.17180252075195312
1760966899975855000,2.732855224609375,-6.432950496673584,1.7729063034057617,-1.1187032461166382
1760966899985543400,2.74254345703125,-6.709528923034668,0.5917010307312012,-2.324655532836914
1760966899995231500,2.7522314453125,-7.506396293640137,-0.7353687286376953,-3.527808666229248
1760966900004919600,2.76191943359375,-8.282557487487793,-2.063483238220215,-4.836669921875
1760966900014608000,2.77160791015625,-8.032045364379883,-3.1561150550842285,-5.9439802169799805
1760966900024296000,2.7812958984375,-7.092619895935059,-4.237404823303223,-6.262768745422363
1760966900033984000,2.79098388671875,-6.733502388000488,-4.777166366577148,-5.984614372253418
1760966900043672000,2.800672119140625,-6.623661994934082,-4.998161792755127,-5.293938159942627
1760966900053360400,2.8103603515625,-6.66889762878418,-4.961568355560303,-4.731318950653076
1760966900063048400,2.82004833984375,-6.925970077514648,-4.842718601226807,-4.740286827087402
1760966900072736500,2.829736572265625,-6.993546485900879,-4.650103569030762,-5.065621376037598
1760966900082424600,2.839424560546875,-7.130273818969727,-4.048360824584961,-5.476481914520264
1760966900092113000,2.84911279296875,-6.806950569152832,-3.6529107093811035,-6.003921985626221
1760966900101801000,2.858801025390625,-5.8673505783081055,-3.3156566619873047,-6.382264614105225
1760966900111489000,2.868489013671875,-3.85147762298584,-2.876176595687866,-6.50315523147583
1760966900121177000,2.878177001953125,-1.376786231994629,-1.9583816528320312,-6.228488445281982
1760966900130865400,2.887865478515625,0.4792337417602539,0.12349176406860352,-5.282042503356934
1760966900140553500,2.897553466796875,0.9488964080810547,2.2354464530944824,-4.7599663734436035
1760966900150241500,2.907241455078125,-0.3375735282897949,3.10684871673584,-4.491858959197998
1760966900159929600,2.9169296875,-2.10919189453125,3.4775967597961426,-3.262040615081787
1760966900169618000,2.926617919921875,-0.4107847213745117,3.889171600341797,-1.415258765220642
1760966900179306000,2.936305908203125,5.653083801269531,4.643765449523926,-0.5147451162338257
1760966900188994000,2.945994140625,11.14572525024414,3.2090015411376953,0.5363668203353882
1760966900198682000,2.95568212890625,14.758974075317383,1.3030247688293457,0.2053617238998413
1760966900208370400,2.965370361328125,15.619109153747559,0.432675838470459,-0.983489990234375
1760966900218058500,2.97505859375,13.93778133392334,0.018267154693603516,-2.1534817218780518
1760966900227746600,2.98474658203125,11.297831535339355,0.2398209571838379,-2.991015911102295
1760966900237435000,2.994434814453125,9.580188751220703,0.7499661445617676,-2.430497646331787
1760966900247123000,3.004123046875,9.625138282775879,1.2209830284118652,-0.8972978591918945
1760966900256811000,3.01381103515625,10.185142517089844,1.731177806854248,0.9932393431663513
1760966900266499000,3.0234990234375,9.036293029785156,1.90211820602417,2.809356689453125
1760966900276187100,3.033187255859375,6.19837760925293,1.6933670043945312,3.7976670265197754
1760966900285875500,3.04287548828125,2.9293088912963867,1.2852187156677246,3.591517448425293
1760966900295563500,3.0525634765625,0.547663688659668,0.6700067520141602,2.941599130630493
1760966900305251600,3.06225146484375,-0.5435819625854492,0.09848546981811523,2.529480457305908
1760966900314939600,3.071939697265625,-1.1564712524414062,-0.39821720123291016,2.5150680541992188
1760966900324628000,3.0816279296875,-2.089972496032715,-1.0184199810028076,2.491319179534912
1760966900334316000,3.09131591796875,-3.127856731414795,-2.0837247371673584,1.9960302114486694
1760966900344004000,3.101004150390625,-4.353769302368164,-3.427614212036133,1.2242448329925537
1760966900353692400,3.1106923828125,-5.458200454711914,-4.69871711730957,0.7658650279045105
1760966900363380500,3.12038037109375,-5.991842269897461,-5.712359428405762,1.2600009441375732
1760966900373068500,3.130068603515625,-4.992012023925781,-6.689906597137451,1.7766718864440918
1760966900382756600,3.139756591796875,-4.09528112411499,-7.254600524902344,2.045553207397461
1760966900392445000,3.14944482421875,-4.185267448425293,-7.536587238311768,2.2254068851470947
1760966900402133000,3.159133056640625,-5.312307834625244,-7.642800331115723,2.120276927947998
1760966900411821000,3.168821044921875,-7.403144359588623,-7.160726547241211,2.181759834289551
1760966900421509000,3.178509033203125,-10.251542091369629,-6.854668140411377,2.6135799884796143
1760966900431197400,3.188197509765625,-12.804122924804688,-6.973931312561035,2.2251510620117188
1760966900440885500,3.197885498046875,-13.6736478805542,-6.763213634490967,1.6135131120681763
1760966900450573600,3.207573486328125,-11.41270637512207,-6.521373748779297,1.9196696281433105
1760966900460262000,3.217261962890625,-7.356225490570068,-6.285953044891357,2.728132724761963
1760966900469950000,3.226949951171875,-2.223045825958252,-6.118395805358887,3.5356218814849854
1760966900479638000,3.236637939453125,2.9622535705566406,-5.010511875152588,4.0691094398498535
1760966900489326000,3.246326171875,5.915277481079102,-2.3102381229400635,5.137953758239746
1760966900499014400,3.256014404296875,4.925809860229492,1.2585129737854004,7.986276626586914
1760966900508702500,3.265702392578125,0.33838653564453125,4.521027088165283,10.873839378356934
1760966900518390500,3.275390625,-4.4885149002075195,6.90122652053833,9.790949821472168
1760966900528078600,3.28507861328125,-6.308183670043945,6.619223594665527,5.701447010040283
1760966900537767000,3.294766845703125,-4.072440147399902,4.716623783111572,3.738784074783325
1760966900547455000,3.304455078125,2.794504165649414,2.779961585998535,4.357213973999023
1760966900557143000,3.31414306640625,12.222152709960938,1.635490894317627,5.573723793029785
1760966900566831400,3.323831298828125,20.974849700927734,0.4536123275756836,5.968950271606445
1760966900576519400,3.33351953125,25.92303466796875,-0.6389846801757812,3.4399325847625732
1760966900586207500,3.34320751953125,25.432586669921875,-1.1994245052337646,-0.014908075332641602
1760966900595895600,3.3528955078125,19.68465232849121,-0.9064664840698242,-0.8858120441436768
1760966900605584000,3.362583984375,11.293621063232422,0.32291650772094727,-0.5118067264556885
1760966900615272000,3.37227197265625,2.6987791061401367,1.8845181465148926,-0.841188907623291
1760966900624960000,3.3819599609375,-3.5519332885742188,2.711484909057617,-1.8001117706298828
1760966900634648300,3.3916484375,-6.523970603942871,3.00004243850708,-2.3186516761779785
1760966900644336400,3.40133642578125,-7.0609612464904785,2.9536595344543457,-2.00321364402771
1760966900654024400,3.4110244140625,-5.668346405029297,2.710792064666748,-1.1131858825683594
1760966900663712500,3.42071240234375,-3.9349474906921387,1.8703985214233398,-0.9364575147628784
1760966900673400800,3.43040087890625,-2.9804935455322266,0.9253921508789062,-1.7393336296081543
1760966900683089000,3.4400888671875,-3.0412683486938477,0.3328828811645508,-2.5654163360595703
1760966900692777000,3.44977685546875,-4.056901931762695,-0.15049266815185547,-3.2329986095428467
1760966900702465300,3.45946533203125,-4.834247589111328,-0.4090156555175781,-3.1946206092834473
1760966900712153300,3.4691533203125,-5.017209529876709,-0.750269889831543,-3.2120885848999023
1760966900721841400,3.47884130859375,-5.461992263793945,-1.238823652267456,-4.08662223815918
1760966900731529700,3.48852978515625,-6.327173233032227,-1.8106083869934082,-4.976716995239258
1760966900741217800,3.4982177734375,-6.617344856262207,-2.1496803760528564,-5.866245269775391
1760966900750905900,3.50790576171875,-6.192612648010254,-2.660550117492676,-6.632641315460205
1760966900760594000,3.517593994140625,-5.232387542724609,-3.062363624572754,-7.065006732940674
1760966900770282200,3.5272822265625,-3.6656546592712402,-2.869793653488159,-7.08782958984375
1760966900779970300,3.53697021484375,-2.1905598640441895,-2.1608471870422363,-6.481152534484863
1760966900789658400,3.546658447265625,-1.341834545135498,-1.5724432468414307,-5.688608646392822
1760966900799346400,3.556346435546875,-0.9089837074279785,-1.267207145690918,-5.409159183502197
1760966900809034800,3.56603466796875,-1.2001147270202637,-1.0001287460327148,-5.45402717590332
1760966900818722800,3.575722900390625,-1.518317699432373,-0.1581716537475586,-4.955841064453125
1760966900828411000,3.585410888671875,-0.33597755432128906,1.3281283378601074,-4.463862419128418
1760966900838099200,3.59509912109375,1.5501346588134766,2.983205795288086,-4.092877388000488
1760966900847787300,3.604787353515625,2.57012939453125,3.9999399185180664,-3.0415987968444824
1760966900857475300,3.614475341796875,2.0510759353637695,3.7694382667541504,-1.4881020784378052
1760966900867163600,3.62416357421875,3.281412124633789,3.220369815826416,-0.37333083152770996
1760966900876851700,3.633851806640625,8.22411823272705,3.4014358520507812,-0.5466941595077515
1760966900886539800,3.643539794921875,12.198190689086914,1.7980380058288574,-0.9021084308624268
1760966900896228000,3.65322802734375,14.006196022033691,0.4706153869628906,-1.274080753326416
1760966900905916200,3.662916259765625,12.51705551147461,0.2892622947692871,-1.7720348834991455
1760966900915604200,3.672604248046875,9.152544021606445,-0.022398948669433594,-2.6441073417663574
1760966900925292500,3.68229248046875,5.944411277770996,-0.09759759902954102,-4.08211088180542
1760966900934980600,3.691980712890625,4.463545799255371,-0.15129613876342773,-4.3705315589904785
1760966900944668700,3.701668701171875,4.526780128479004,0.24936485290527344,-3.1457855701446533
1760966900954356700,3.711356689453125,4.6184186935424805,0.4824213981628418,-1.2153477668762207
1760966900964045000,3.721045166015625,3.6566953659057617,0.4935569763183594,0.5773093104362488
1760966900973733000,3.730733154296875,1.3306236267089844,0.28955507278442383,1.570774793624878
1760966900983421200,3.740421142578125,-1.6582179069519043,-0.23670101165771484,1.7833948135375977
1760966900993109500,3.750109619140625,-4.412084102630615,-0.6274008750915527,2.0896239280700684
1760966901002797600,3.759797607421875,-6.041070938110352,-0.8808293342590332,2.6236250400543213
1760966901012485600,3.769485595703125,-6.625494956970215,-0.926142692565918,3.122297763824463
1760966901022174000,3.779174072265625,-6.7606520652771,-1.1570072174072266,4.025582313537598
1760966901031862000,3.788862060546875,-6.590899467468262,-1.861711025238037,4.3378119468688965
1760966901041550000,3.798550048828125,-6.283687591552734,-3.3220245838165283,3.4064462184906006
1760966901051238400,3.80823828125,-5.776675701141357,-5.127078056335449,2.0967459678649902
1760966901060926500,3.817926513671875,-5.023043632507324,-6.432794570922852,1.137851357460022
1760966901070614500,3.827614501953125,-4.96585750579834,-6.953373908996582,0.9067244529724121
1760966901080302800,3.837302734375,-5.105404853820801,-7.461740016937256,1.0112394094467163
1760966901089991000,3.846990966796875,-5.3835954666137695,-7.995560169219971,0.9746589660644531
1760966901099679000,3.856678955078125,-6.069775581359863,-8.247701644897461,0.6017918586730957
1760966901109367300,3.8663671875,-7.036625385284424,-7.796221733093262,0.9220974445343018
1760966901119055400,3.876055419921875,-7.449097633361816,-7.1027326583862305,1.9334355592727661
1760966901128743400,3.885743408203125,-7.120932102203369,-6.355635643005371,3.066926956176758
1760966901138431700,3.895431640625,-5.780488967895508,-5.387661933898926,4.742928504943848
1760966901148119800,3.905119873046875,-3.3126168251037598,-4.76023530960083,5.67592191696167
1760966901157807900,3.914807861328125,0.1420135498046875,-4.254868984222412,6.025670051574707
1760966901167496200,3.92449609375,3.8964405059814453,-3.6677868366241455,6.047080039978027
1760966901177184300,3.934184326171875,6.686152458190918,-2.1821446418762207,6.182827949523926
1760966901186872300,3.943872314453125,6.387585639953613,0.1038966178894043,7.177142143249512
1760966901196560600,3.953560546875,2.8715124130249023,1.69096040725708,8.054723739624023
1760966901206248700,3.963248779296875,-0.9004011154174805,2.299107074737549,6.286401748657227
1760966901215937000,3.97293701171875,-1.5543212890625,2.0776443481445312,2.6333513259887695
1760966901225625000,3.982625,1.4365453720092773,1.4872431755065918,1.0688822269439697
1760966901235313200,3.992313232421875,6.857551574707031,1.051243782043457,2.3375654220581055
1760966901245001200,4.002001220703125,11.604016304016113,1.6827197074890137,4.189888954162598
1760966901254689500,4.011689453125,14.674469947814941,1.8165807723999023,5.052892684936523
1760966901264377600,4.021377685546875,16.86794662475586,1.1575140953063965,4.346482276916504
1760966901274066000,4.03106591796875,17.48065185546875,1.151339054107666,3.0409934520721436
1760966901283754000,4.04075390625,14.889302253723145,1.8268413543701172,2.170421838760376
1760966901293442000,4.050442138671875,10.06476879119873,2.9870457649230957,2.088063955307007
1760966901303130400,4.06013037109375,4.989299774169922,4.24556827545166,2.502934455871582
1760966901312818400,4.069818359375,0.6846990585327148,5.145630359649658,2.6139185428619385
1760966901322506500,4.079506591796875,-2.156954765319824,5.348171710968018,1.8998358249664307
1760966901332194800,4.08919482421875,-3.7668967247009277,4.7128119468688965,0.7836828231811523
1760966901341883000,4.0988828125,-4.692420959472656,3.6652913093566895,-0.49922966957092285
1760966901351571000,4.108571044921875,-5.303476810455322,2.703719139099121,-1.6345303058624268
1760966901361259300,4.11825927734375,-5.534750938415527,1.7515153884887695,-2.5094094276428223
1760966901370947300,4.127947265625,-5.78354549407959,0.7364835739135742,-3.4371566772460938
1760966901380635600,4.1376357421875,-6.2360615730285645,-0.1068868637084961,-4.187816143035889
1760966901390323700,4.14732373046875,-6.339382171630859,-0.9167468547821045,-4.997190952301025
1760966901400011800,4.15701171875,-6.097174167633057,-1.7163805961608887,-5.57503604888916
1760966901409700000,4.1667001953125,-5.764345169067383,-2.3682425022125244,-5.984371185302734
1760966901419388200,4.17638818359375,-5.532078266143799,-3.065035581588745,-6.052223205566406
1760966901429076200,4.186076171875,-5.1790642738342285,-3.45041561126709,-6.192779541015625
1760966901438764500,4.1957646484375,-4.971687316894531,-3.4011788368225098,-6.634920597076416
1760966901448452600,4.20545263671875,-4.460869312286377,-3.015089511871338,-6.730832099914551
1760966901458141000,4.215140869140625,-3.6581997871398926,-2.5185866355895996,-6.740520477294922
1760966901467829000,4.2248291015625,-3.001802921295166,-2.153618574142456,-6.778955936431885
1760966901477517000,4.23451708984375,-2.6547040939331055,-1.9034929275512695,-6.8975982666015625
1760966901487205400,4.244205322265625,-2.6675944328308105,-1.5796301364898682,-6.775508880615234
1760966901496893400,4.2538935546875,-2.553224563598633,-1.2740142345428467,-6.676760673522949
1760966901506581500,4.26358154296875,-1.887378215789795,-0.5169854164123535,-6.40791130065918
1760966901516269800,4.273269775390625,-0.4978623390197754,1.050450325012207,-5.64982795715332
1760966901525958000,4.2829580078125,0.42952728271484375,2.481325626373291,-5.590615272521973
1760966901535646000,4.29264599609375,-0.056181907653808594,3.1461496353149414,-4.803840160369873
1760966901545334300,4.302334228515625,1.180953025817871,3.3278307914733887,-2.6916284561157227
1760966901555022300,4.312022216796875,6.258710861206055,3.2086682319641113,-0.9488343000411987
1760966901564710700,4.321710693359375,13.598462104797363,3.1009926795959473,0.30727481842041016
1760966901574398700,4.331398681640625,18.72551155090332,0.9562335014343262,0.6468057632446289
1760966901584086800,4.341086669921875,19.48646354675293,-0.7749612331390381,-0.9694368839263916
1760966901593775000,4.350775146484375,16.135574340820312,-0.9602444171905518,-1.7048687934875488
1760966901603463200,4.360463134765625,10.96364688873291,-0.6934309005737305,-1.996816635131836
1760966901613151500,4.3701513671875,6.8583478927612305,0.11031246185302734,-2.3584399223327637
1760966901622839600,4.379839599609375,4.695492744445801,0.6557512283325195,-1.7705386877059937
1760966901632527600,4.389527587890625,4.599234580993652,0.8359227180480957,-1.2236875295639038
1760966901642216000,4.3992158203125,5.034570693969727,0.7494421005249023,0.2866096496582031
1760966901651904000,4.408904052734375,4.026271820068359,0.6929936408996582,2.1720070838928223
1760966901661592300,4.41859228515625,1.8580703735351562,0.6212944984436035,3.1901326179504395
1760966901671280400,4.4282802734375,-0.606806755065918,0.17844629287719727,3.1538476943969727
1760966901680968400,4.437968505859375,-2.608168125152588,-0.3841719627380371,2.5546963214874268
1760966901690656800,4.44765673828125,-4.338330268859863,-0.33427953720092773,2.596907615661621
1760966901700344800,4.4573447265625,-5.501877784729004,-0.19028711318969727,3.4317386150360107
1760966901710033000,4.467032958984375,-6.361234664916992,-0.5089082717895508,3.8846664428710938
1760966901719721200,4.47672119140625,-7.187456130981445,-1.3437857627868652,3.6500115394592285
1760966901729409300,4.4864091796875,-7.703522205352783,-2.536313772201538,3.1080899238586426
1760966901739097300,4.496097412109375,-7.491680145263672,-3.8320353031158447,2.1613073348999023
1760966901748785700,4.50578564453125,-6.1410441398620605,-5.223418235778809,1.324736475944519
1760966901768162000,4.525162109375,-3.950270175933838,-7.305067539215088,1.2347849607467651
1760966901777850000,4.53485009765625,-3.7434253692626953,-7.850919723510742,1.398922085762024
1760966901787538200,4.5445380859375,-4.289405345916748,-8.288581848144531,1.8230394124984741
1760966901797226500,4.5542265625,-5.699806213378906,-8.131128311157227,2.4939024448394775
1760966901806914600,4.56391455078125,-6.926397323608398,-7.700055122375488,3.300271987915039
1760966901816603000,4.573602783203125,-7.814855098724365,-6.965217590332031,4.171152114868164
1760966901826291000,4.583291015625,-7.999042987823486,-6.024768829345703,5.063471794128418
1760966901835979300,4.592979248046875,-6.802633762359619,-5.473000526428223,5.3116607666015625
1760966901845667300,4.602667236328125,-5.173272132873535,-5.207179069519043,5.382854461669922
1760966901855355400,4.61235546875,-2.9459099769592285,-4.852780342102051,5.097353458404541
1760966901865043700,4.622043701171875,-0.15459537506103516,-3.664212226867676,4.422378063201904
1760966901874731800,4.631731689453125,1.8212766647338867,-1.4310355186462402,4.746819496154785
1760966901884420000,4.641420166015625,0.9908628463745117,0.7521710395812988,5.929332256317139
1760966901894108200,4.651108154296875,-1.2929844856262207,2.0558528900146484,6.368666648864746
1760966901903796200,4.660796142578125,-1.9781537055969238,2.587493896484375,4.686227321624756
1760966901913484500,4.670484619140625,0.6294384002685547,2.843944549560547,3.6389431953430176
1760966901923172600,4.680172607421875,5.647477149963379,1.8161859512329102,4.454008102416992
1760966901932861000,4.68986083984375,11.623595237731934,1.689316749572754,5.368795871734619
1760966901942549000,4.699549072265625,15.727412223815918,2.047478437423706,6.250574111938477
1760966901952237000,4.709237060546875,18.2353515625,1.9665460586547852,7.366769790649414
1760966901961925400,4.71892529296875,19.734668731689453,2.527245044708252,6.543377876281738
1760966901971613400,4.728613525390625,17.48713493347168,3.3334617614746094,4.844063758850098
1760966901981301800,4.7383017578125,11.76804256439209,4.218626976013184,4.006726264953613
1760966901990989800,4.74798974609375,5.788163185119629,5.110617160797119,3.1774439811706543
1760966902000678000,4.757677978515625,1.1788978576660156,5.532492160797119,2.251361846923828
1760966902010366200,4.7673662109375,-1.8346176147460938,5.499975204467773,1.5277700424194336
1760966902020054300,4.77705419921875,-3.735413074493408,4.79421854019165,0.986459493637085
1760966902029742600,4.78674267578125,-4.630557060241699,3.816223621368408,0.17309331893920898
1760966902039430700,4.7964306640625,-5.1630682945251465,2.5787720680236816,-0.9541255235671997
1760966902049118700,4.80611865234375,-5.313368320465088,1.2256035804748535,-2.6717429161071777
1760966902058807000,4.81580712890625,-4.730704307556152,0.10376214981079102,-4.351126670837402
1760966902068495000,4.8254951171875,-4.401928901672363,-0.7992873191833496,-5.603533744812012
1760966902078183400,4.835183349609375,-4.1982421875,-1.3110995292663574,-6.397914886474609
1760966902087871500,4.84487158203125,-4.233361721038818,-1.9374420642852783,-6.702053070068359
1760966902097559600,4.8545595703125,-4.770834445953369,-2.2610692977905273,-6.4491987228393555
1760966902107247900,4.864247802734375,-5.718328952789307,-2.094609260559082,-5.883269786834717
1760966902116936000,4.87393603515625,-6.383477210998535,-1.9988071918487549,-5.53444242477417
1760966902126624300,4.883624267578125,-7.008915424346924,-2.117624044418335,-5.737509727478027
1760966902136312300,4.893312255859375,-7.124168395996094,-2.3401246070861816,-6.416917324066162
1760966902146000400,4.90300048828125,-5.767187118530273,-2.3683784008026123,-6.836000919342041
1760966902155688700,4.912688720703125,-3.180734157562256,-2.4551901817321777,-6.675469875335693
1760966902165376800,4.922376708984375,-0.7453594207763672,-2.6061582565307617,-6.461049556732178
1760966902175065000,4.932065185546875,1.038355827331543,-2.4877734184265137,-6.329244136810303
1760966902184753200,4.941753173828125,1.625422477722168,-2.4925291538238525,-6.188905239105225
1760966902194441200,4.951441162109375,1.202371597290039,-1.975858211517334,-5.927115440368652
1760966902204129500,4.961129638671875,0.9723119735717773,-0.6781454086303711,-5.710155963897705
1760966902213817600,4.970817626953125,0.9979209899902344,1.086379051208496,-5.453120231628418
1760966902223506000,4.980505859375,1.162104606628418,2.760140895843506,-4.91652250289917
1760966902233194000,4.990194091796875,-0.048145294189453125,3.434699535369873,-4.452157974243164
1760966902242882000,4.999882080078125,-0.6609244346618652,3.6523380279541016,-3.828479290008545
1760966902252570400,5.0095703125,1.6573762893676758,3.615534782409668,-2.22458553314209
1760966902262258400,5.019258544921875,7.896712303161621,3.697948932647705,-0.019621610641479492
1760966902271946800,5.02894677734375,14.150185585021973,2.5713210105895996,1.484901785850525
1760966902281634800,5.038634765625,17.363975524902344,1.7862091064453125,1.2637567520141602
1760966902291323000,5.048322998046875,17.00593376159668,0.31948137283325195,0.5992732048034668
1760966902301011200,5.05801123046875,14.459854125976562,-0.7393231391906738,-0.192890465259552
1760966902310699300,5.06769921875,11.743413925170898,-0.9009075164794922,-1.7369304895401
1760966902320387600,5.0773876953125,9.452377319335938,-0.7497847080230713,-2.296785831451416
1760966902330075600,5.08707568359375,8.001750946044922,-0.8451266288757324,-1.6265445947647095
1760966902339763700,5.096763671875,6.755006790161133,-0.8376269340515137,-0.08587902784347534
1760966902349452000,5.1064521484375,5.039590835571289,-0.7454743385314941,1.6724772453308105
1760966902359140000,5.11614013671875,2.324922561645508,-0.8970918655395508,2.8026020526885986
1760966902368828400,5.125828369140625,-0.6079306602478027,-1.1507716178894043,3.4161465167999268
1760966902378516500,5.1355166015625,-3.2948412895202637,-1.3426058292388916,3.6658105850219727
1760966902388204500,5.14520458984375,-5.658953666687012,-1.3673796653747559,3.654639720916748
1760966902397892900,5.154892822265625,-7.529642105102539,-1.3012313842773438,3.804692268371582
1760966902407581000,5.164580810546875,-8.623123168945312,-1.4639520645141602,3.938033103942871
1760966902417269200,5.174269287109375,-9.022881507873535,-2.161285877227783,3.5891075134277344
1760966902426957300,5.183957275390625,-8.956313133239746,-3.3009629249572754,2.921783685684204
1760966902436645400,5.193645263671875,-8.346260070800781,-4.703827857971191,2.026275634765625
1760966902446333700,5.203333740234375,-7.374964237213135,-5.899562835693359,1.4559286832809448
1760966902456021800,5.213021728515625,-6.002151012420654,-7.010028839111328,1.29695725440979
1760966902465710000,5.2227099609375,-4.399872779846191,-8.02749252319336,1.1647073030471802
1760966902475398100,5.232398193359375,-3.5057010650634766,-8.963859558105469,0.9479093551635742
1760966902485086200,5.242086181640625,-3.688966751098633,-9.580794334411621,0.7731051445007324
1760966902494774500,5.2517744140625,-4.906250476837158,-9.661733627319336,1.1448060274124146
1760966902504462600,5.261462646484375,-6.7414774894714355,-9.237873077392578,2.1848621368408203
1760966902514151000,5.27115087890625,-8.144760131835938,-8.37137222290039,3.3985557556152344
1760966902523839000,5.2808388671875,-8.541024208068848,-7.523613929748535,4.0854339599609375
1760966902533527000,5.290527099609375,-7.797080993652344,-7.036778450012207,4.242351531982422
1760966902543215400,5.30021533203125,-5.84104061126709,-6.5351057052612305,4.05635929107666
1760966902552903400,5.3099033203125,-3.2213239669799805,-6.108150482177734,3.9147815704345703
1760966902562591700,5.319591796875,-0.4226675033569336,-5.2826972007751465,3.1863718032836914
1760966902572279800,5.32927978515625,1.8462753295898438,-3.4709529876708984,2.5125975608825684
1760966902581968000,5.3389677734375,2.3641462326049805,-0.555455207824707,3.097289562225342
1760966902591656200,5.34865625,0.2947702407836914,2.412705898284912,4.867376327514648
1760966902601344300,5.35834423828125,-3.109030246734619,4.644751071929932,6.487720012664795
1760966902611032600,5.368032470703125,-4.903660297393799,5.808893203735352,5.5827131271362305
1760966902620720600,5.377720703125,-2.838548183441162,4.3817219734191895,3.048506498336792
1760966902630408700,5.38740869140625,3.250011444091797,1.761491298675537,2.1200718879699707
1760966902640097000,5.397096923828125,11.424372673034668,0.594048023223877,2.754072904586792
1760966902649785000,5.40678515625,18.416976928710938,1.21626615524292,4.629072189331055
1760966902659473400,5.416473388671875,23.367351531982422,2.0847015380859375,6.329466819763184
1760966902669161500,5.426161376953125,25.266773223876953,3.1750407218933105,6.088108062744141
1760966902678849500,5.435849609375,21.322477340698242,4.294541358947754,4.396305084228516
1760966902688537900,5.445537841796875,13.544501304626465,4.822775363922119,2.82409930229187
1760966902698226000,5.455225830078125,5.597250938415527,5.538532733917236,1.5588874816894531
1760966902707914200,5.464914306640625,-0.536949634552002,5.864474296569824,0.9755079746246338
1760966902717602300,5.474602294921875,-4.214388847351074,5.926909446716309,1.5463731288909912
1760966902727290400,5.484290283203125,-5.791083335876465,5.580545902252197,1.9470908641815186
1760966902736978700,5.493978759765625,-5.670400619506836,4.5658063888549805,1.523172378540039
1760966902746666800,5.503666748046875,-4.849986553192139,3.3929619789123535,0.9077932834625244
1760966902756355000,5.51335498046875,-4.286287307739258,2.1533517837524414,-0.10622334480285645
1760966902766043100,5.523043212890625,-4.234761714935303,1.0257759094238281,-1.7829856872558594
1760966902775731200,5.532731201171875,-4.495784759521484,0.17284774780273438,-3.5882022380828857
1760966902785419500,5.54241943359375,-4.737669944763184,-0.7560296058654785,-4.788577079772949
1760966902795107600,5.552107666015625,-5.384186267852783,-1.25978684425354,-5.607072830200195
1760966902804795600,5.561795654296875,-5.872786998748779,-1.428889513015747,-6.18458366394043
1760966902814484000,5.57148388671875,-6.053272247314453,-1.6402873992919922,-6.684404373168945
1760966902824172000,5.581172119140625,-5.963224411010742,-2.0582380294799805,-7.126643180847168
1760966902833860400,5.5908603515625,-5.441203594207764,-2.3010761737823486,-7.451513290405273
1760966902843548400,5.60054833984375,-4.539312362670898,-2.4728407859802246,-7.545363426208496
1760966902853236500,5.610236572265625,-3.0830445289611816,-2.838207244873047,-7.802481174468994
1760966902862924800,5.6199248046875,-1.2051420211791992,-2.9970526695251465,-8.207406997680664
1760966902872612900,5.62961279296875,-0.06141948699951172,-2.683948516845703,-8.412960052490234
1760966902882301200,5.63930126953125,0.030712127685546875,-1.9565916061401367,-7.481168270111084
1760966902891989200,5.6489892578125,-0.9176349639892578,-0.923701286315918,-6.574984550476074
1760966902901677300,5.65867724609375,-2.039020538330078,0.05688333511352539,-5.953038215637207
1760966902911365600,5.66836572265625,-1.4235100746154785,0.741234302520752,-5.635485649108887
1760966902921053700,5.6780537109375,0.6717100143432617,1.8412952423095703,-4.970664978027344
1760966902930742000,5.687741943359375,2.9623823165893555,3.5163707733154297,-3.586298942565918
1760966902940430000,5.69743017578125,4.185823440551758,4.821056365966797,-2.2181355953216553
1760966902959806500,5.716806396484375,5.144184112548828,5.2098541259765625,1.1551460027694702
1760966902969494500,5.72649462890625,7.5725908279418945,4.603586673736572,0.48453474044799805
1760966902979182600,5.7361826171875,9.683806419372559,2.749192237854004,-0.39323151111602783
1760966902988871000,5.745870849609375,10.747442245483398,1.1884121894836426,-0.81013023853302
1760966902998559000,5.75555908203125,10.434579849243164,0.4019198417663574,-0.5085679292678833
1760966903008247000,5.7652470703125,9.618468284606934,-0.4191465377807617,-0.15619289875030518
1760966903017935400,5.774935302734375,8.858410835266113,-0.8300538063049316,-0.9998674392700195
1760966903027623400,5.78462353515625,8.18822956085205,-0.9778175354003906,-1.860139012336731
1760966903037311700,5.794311767578125,7.693051338195801,-1.2384276390075684,-2.0965323448181152
1760966903046999800,5.803999755859375,6.532981872558594,-1.3462953567504883,-1.563070297241211
1760966903056687900,5.81368798828125,4.748350143432617,-1.3680744171142578,-0.22215420007705688
1760966903066376200,5.823376220703125,2.7001113891601562,-1.3223533630371094,1.114307165145874
1760966903076064300,5.833064208984375,0.40729618072509766,-1.2732586860656738,1.9482370615005493
1760966903085752600,5.842752685546875,-2.2684121131896973,-1.1035332679748535,2.3506710529327393
1760966903095440600,5.852440673828125,-5.419079303741455,-0.5841889381408691,2.752796173095703
1760966903105128700,5.862128662109375,-7.8787431716918945,-0.28307294845581055,3.296746015548706
1760966903114817000,5.871817138671875,-9.08834171295166,-0.7517290115356445,3.5156185626983643
1760966903124505000,5.881505126953125,-9.264873504638672,-1.8852696418762207,3.161862850189209
1760966903134193200,5.891193115234375,-9.149935722351074,-3.3963463306427,2.7035419940948486
1760966903143881500,5.900881591796875,-8.552966117858887,-5.231453895568848,1.730191946029663
1760966903153569500,5.910569580078125,-6.750515937805176,-7.028647422790527,0.3922443389892578
1760966903163257900,5.9202578125,-4.281181335449219,-8.416523933410645,0.027954578399658203
1760966903172946000,5.92994580078125,-2.247513771057129,-9.228631973266602,0.43708980083465576
1760966903182634000,5.939634033203125,-1.5496797561645508,-9.424189567565918,1.570611834526062
1760966903192322300,5.949322265625,-2.5740880966186523,-8.947901725769043,3.140069007873535
1760966903202010400,5.95901025390625,-5.233187198638916,-8.153875350952148,4.0031256675720215
1760966903211698400,5.968698486328125,-8.227396011352539,-7.543160915374756,4.60184383392334
1760966903221386800,5.97838671875,-10.94082260131836,-6.773879051208496,4.631477355957031
1760966903231074800,5.98807470703125,-12.260190963745117,-6.350555896759033,3.9211063385009766
1760966903240763000,5.997762939453125,-11.255563735961914,-6.562617301940918,3.437992811203003
1760966903250451200,6.007451171875,-8.303683280944824,-6.543797492980957,3.4828085899353027
1760966903260139300,6.01713916015625,-4.791927337646484,-6.402937412261963,3.8228840827941895
1760966903269827600,6.02682763671875,0.02025604248046875,-5.954451084136963,4.036753177642822
1760966903279515600,6.036515625,5.445961952209473,-4.683536052703857,5.028912544250488
1760966903289203700,6.04620361328125,7.5604352951049805,-2.3457798957824707,7.653275966644287
1760966903298892000,6.05589208984375,4.887723922729492,0.09984159469604492,9.28042984008789
1760966903308580000,6.065580078125,0.17966938018798828,1.6194443702697754,6.796926975250244
1760966903318268200,6.07526806640625,-2.389723777770996,2.126530170440674,2.607058525085449
1760966903327956500,6.08495654296875,-1.3101539611816406,1.729560375213623,0.8718695640563965
1760966903337644500,6.09464453125,2.422165870666504,1.7698845863342285,1.2079861164093018
1760966903347332600,6.10433251953125,7.270681381225586,2.6287622451782227,3.6823461055755615
1760966903357021000,6.11402099609375,14.15914535522461,3.325702667236328,6.8021955490112305
1760966903366709000,6.123708984375,21.044902801513672,4.294842720031738,8.416325569152832
1760966903376397300,6.133397216796875,23.041500091552734,5.292133331298828,8.228073120117188
1760966903386085400,6.14308544921875,19.193260192871094,6.562705993652344,7.4286041259765625
1760966903395773400,6.1527734375,13.053862571716309,7.271450996398926,5.741325855255127
1760966903405461800,6.162461669921875,8.0855712890625,7.342898368835449,3.483086109161377
1760966903415149800,6.17214990234375,4.378846168518066,7.001751899719238,1.3039422035217285
1760966903424838000,6.181837890625,2.334469795227051,6.374056339263916,-0.603818416595459
1760966903434526200,6.191526123046875,1.6422348022460938,5.419267654418945,-2.411445140838623
1760966903444214300,6.20121435546875,1.0978355407714844,4.277206897735596,-3.9127180576324463
1760966903453902600,6.210902587890625,0.013548851013183594,3.1530919075012207,-5.0980424880981445
1760966903463590700,6.220590576171875,-1.6671686172485352,2.202681541442871,-6.270009994506836
1760966903473278700,6.23027880859375,-3.9626283645629883,1.5030932426452637,-7.255139350891113
1760966903482967000,6.239967041015625,-6.168365478515625,1.074976921081543,-7.309483528137207
1760966903492655000,6.249655029296875,-7.8094892501831055,0.8110980987548828,-6.815793037414551
1760966903502343200,6.25934326171875,-9.1547212600708,0.6598467826843262,-6.384922504425049
1760966903512031500,6.269031494140625,-10.033889770507812,0.31232261657714844,-6.0121331214904785
1760966903521719600,6.278719482421875,-9.937580108642578,-0.30951523780822754,-5.697649002075195
1760966903531407600,6.28840771484375,-8.39409351348877,-0.8410449028015137,-5.875728607177734
1760966903550784000,6.307783935546875,-4.011745929718018,-2.048511266708374,-7.382978916168213
1760966903560472000,6.31747216796875,-3.583664894104004,-2.659022808074951,-8.194046020507812
1760966903570160400,6.327160400390625,-3.4725117683410645,-2.762613534927368,-8.81602668762207
1760966903579848400,6.336848388671875,-2.869584083557129,-2.3357973098754883,-9.56053352355957
1760966903589536500,6.34653662109375,-2.747941017150879,-1.735635757446289,-10.04866886138916
1760966903599224800,6.356224853515625,-2.170914649963379,-0.5889544486999512,-9.395155906677246
1760966903608913000,6.365912841796875,-0.37370967864990234,0.9881706237792969,-8.211076736450195
1760966903618601200,6.375601318359375,1.8139677047729492,2.555203914642334,-6.8983001708984375
1760966903628289300,6.385289306640625,3.0081300735473633,4.1359663009643555,-4.9821929931640625
1760966903637977300,6.394977294921875,3.3360986709594727,5.4185566902160645,-3.2169032096862793
1760966903647665700,6.404665771484375,4.679098129272461,4.8129072189331055,-1.5801618099212646
1760966903657353700,6.414353759765625,11.206740379333496,4.326568126678467,-0.5170685052871704
1760966903667041800,6.424041748046875,17.4132080078125,3.0986342430114746,0.7849760055541992
1760966903676730000,6.433730224609375,20.829729080200195,0.39679765701293945,1.1867892742156982
1760966903686418200,6.443418212890625,20.121318817138672,-1.1415414810180664,0.009253382682800293
1760966903696106500,6.4531064453125,15.807793617248535,-2.0570507049560547,-0.1324915885925293
1760966903705794600,6.462794677734375,11.125250816345215,-2.33571457862854,-0.8124939203262329
1760966903715482600,6.472482666015625,7.640791893005371,-2.1879332065582275,-1.1586357355117798
1760966903725170700,6.482170654296875,5.810769081115723,-2.2796456813812256,-0.3350256085395813
1760966903734859000,6.49185888671875,5.828183174133301,-2.4562478065490723,1.3951393365859985
1760966903744547000,6.501547119140625,5.821280479431152,-2.661105155944824,3.4582366943359375
1760966903754235400,6.5112353515625,3.85945987701416,-2.543595552444458,5.097128868103027
1760966903763923500,6.52092333984375,0.05848407745361328,-2.5346012115478516,5.867531776428223
1760966903773611500,6.530611572265625,-4.288028240203857,-2.6885080337524414,5.1911773681640625
1760966903783299800,6.5402998046875,-8.199109077453613,-2.885322332382202,4.057337760925293
1760966903792988000,6.54998779296875,-10.885436058044434,-2.576219081878662,3.433907985687256
1760966903802676000,6.559676025390625,-11.983597755432129,-2.4499075412750244,3.2096951007843018
1760966903812364300,6.5693642578125,-11.906845092773438,-2.57175612449646,2.991971015930176
1760966903822052400,6.57905224609375,-11.436249732971191,-3.14810848236084,2.5813965797424316
1760966903831740400,6.588740478515625,-10.405923843383789,-4.255987644195557,1.9285863637924194
1760966903841428700,6.5984287109375,-8.338953971862793,-5.527616500854492,1.5207239389419556
1760966903851116800,6.60811669921875,-5.965754985809326,-6.504819869995117,1.7771812677383423
1760966903860804900,6.617804931640625,-4.3582305908203125,-7.253835678100586,1.7556077241897583
1760966903870493200,6.6274931640625,-3.7326107025146484,-7.769035816192627,1.2507308721542358
1760966903880181200,6.63718115234375,-3.979111671447754,-7.8900556564331055,0.9341503381729126
1760966903889869600,6.64686962890625,-4.7408037185668945,-7.415904521942139,1.201595664024353
1760966903899557600,6.6565576171875,-5.953185558319092,-6.883879661560059,1.7840330600738525
1760966903909245700,6.66624560546875,-6.904546737670898,-6.251515865325928,2.5996575355529785
1760966903918933800,6.675933837890625,-7.06041955947876,-5.495633125305176,3.870943784713745
1760966903928622000,6.6856220703125,-6.691221714019775,-4.913395881652832,4.994572162628174
1760966903938310100,6.69531005859375,-6.062232971191406,-4.651906967163086,5.5773773193359375
1760966903947998500,6.70499853515625,-5.118076801300049,-4.722480297088623,5.200862407684326
1760966903957686500,6.7146865234375,-3.6837515830993652,-4.983846664428711,4.14931058883667
1760966903967374600,6.72437451171875,-2.2408366203308105,-4.3528642654418945,3.139817237854004
1760966903977062700,6.734062744140625,-0.41616392135620117,-2.158705472946167,3.477725028991699
1760966903986751000,6.7437509765625,0.7750616073608398,0.27278661727905273,5.374654769897461
1760966903996439000,6.75343896484375,0.28482723236083984,1.8747076988220215,7.012869358062744
1760966904006127400,6.76312744140625,0.5024204254150391,3.019435405731201,6.274111747741699
1760966904015815400,6.7728154296875,2.002871513366699,3.055549144744873,4.0166707038879395
1760966904025503500,6.78250341796875,5.323668479919434,1.4158415794372559,3.386892080307007
1760966904035191800,6.79219189453125,10.89002799987793,1.4993767738342285,4.507596969604492
1760966904044880000,6.8018798828125,14.423604965209961,2.513824462890625,5.216926097869873
1760966904054568000,6.81156787109375,16.353694915771484,2.675226926803589,5.3436431884765625
1760966904064256300,6.82125634765625,17.78365707397461,2.9711391925811768,4.644903182983398
1760966904073944300,6.8309443359375,17.351749420166016,3.702162504196167,3.4055142402648926
1760966904083632400,6.84063232421875,13.721317291259766,4.332806587219238,2.301352024078369
1760966904093320700,6.85032080078125,8.454763412475586,4.847229957580566,1.2545371055603027
1760966904103008800,6.8600087890625,3.9047889709472656,5.053966999053955,0.704108476638794
1760966904112696800,6.86969677734375,1.9443292617797852,5.210744380950928,1.3202276229858398
1760966904122385200,6.87938525390625,0.9515390396118164,4.90776252746582,1.2663896083831787
1760966904132073200,6.8890732421875,0.2324676513671875,4.044111728668213,-0.0510411262512207
1760966904141761300,6.89876123046875,-0.22524452209472656,2.9470982551574707,-1.837329387664795
1760966904151449600,6.90844970703125,-0.8198633193969727,2.2865121364593506,-3.280189275741577
1760966904161137700,6.9181376953125,-1.8581862449645996,1.782801628112793,-4.580207824707031
1760966904170825700,6.92782568359375,-3.1547112464904785,1.2230069637298584,-5.401334762573242
1760966904180514000,6.93751416015625,-4.0120086669921875,0.921057939529419,-5.412768363952637
1760966904190202000,6.9472021484375,-4.823424339294434,0.7572383880615234,-5.082517147064209
1760966904199890200,6.95689013671875,-5.643008232116699,0.5815339088439941,-5.049232006072998
1760966904209578500,6.96657861328125,-6.20963191986084,0.1585228443145752,-5.453393936157227
1760966904219266600,6.9762666015625,-5.560340881347656,-0.3046879768371582,-5.792929172515869
1760966904228954600,6.98595458984375,-4.436275005340576,-0.5716514587402344,-6.196063041687012
1760966904238643000,6.995642822265625,-4.156747817993164,-0.9990546703338623,-6.995952606201172
1760966904248331000,7.0053310546875,-4.535729885101318,-1.4216837882995605,-8.188962936401367
1760966904258019000,7.01501904296875,-4.787089824676514,-1.5602161884307861,-9.183433532714844
1760966904267707400,7.024707275390625,-4.661256790161133,-1.7403180599212646,-9.88842487335205
1760966904277395500,7.0343955078125,-3.821138858795166,-1.6900274753570557,-10.050735473632812
1760966904287083500,7.04408349609375,-2.2476439476013184,-1.5716307163238525,-9.967144966125488
1760966904296771800,7.053771728515625,-0.4398612976074219,-1.343665599822998,-9.572158813476562
1760966904306460000,7.0634599609375,1.351668357849121,-0.31023144721984863,-8.571146965026855
1760966904316148000,7.07314794921875,2.451852798461914,1.4963674545288086,-7.230709075927734
1760966904325836300,7.082836181640625,2.495199203491211,3.35502290725708,-5.845256805419922
1760966904335524400,7.0925244140625,1.229766845703125,4.718791961669922,-4.595576763153076
1760966904345212400,7.10221240234375,0.019827842712402344,5.5200347900390625,-3.973021984100342
1760966904354900700,7.111900634765625,2.7429542541503906,5.510239601135254,-2.6193864345550537
1760966904364588800,7.1215888671875,10.9197416305542,4.504514694213867,-0.2875986099243164
1760966904374276900,7.13127685546875,19.949718475341797,2.1210947036743164,2.2377891540527344
1760966904383965200,7.140965087890625,24.588428497314453,0.8669252395629883,3.52293062210083
1760966904393653200,7.1506533203125,23.23265838623047,-0.8289639949798584,3.100590229034424
1760966904403341300,7.16034130859375,18.880348205566406,-2.7341814041137695,0.6471889019012451
1760966904413029600,7.170029541015625,14.16819953918457,-3.704202890396118,-1.9752888679504395
1760966904422717700,7.1797177734375,11.227704048156738,-4.203245162963867,-3.2059853076934814
1760966904432405800,7.18940576171875,9.249869346618652,-3.794032096862793,-2.1577210426330566
1760966904442094000,7.199093994140625,6.605891227722168,-3.306274890899658,0.03082287311553955
1760966904451782100,7.2087822265625,2.6174449920654297,-2.5077717304229736,2.415632724761963
1760966904461470200,7.21847021484375,-1.3322091102600098,-2.0328307151794434,4.381564140319824
1760966904471158500,7.228158447265625,-4.524184226989746,-1.9229660034179688,5.094067573547363
1760966904480846600,7.2378466796875,-7.747859954833984,-2.2276971340179443,4.639313220977783
1760966904490534700,7.24753466796875,-10.620598793029785,-2.0251595973968506,4.512828350067139
1760966904500223000,7.257222900390625,-12.2990140914917,-2.004969835281372,4.495151996612549
1760966904509911000,7.2669111328125,-12.809239387512207,-2.789980888366699,4.060240268707275
1760966904519599400,7.276599365234375,-12.783023834228516,-3.960543632507324,3.0914158821105957
1760966904529287400,7.286287353515625,-12.175405502319336,-5.577722072601318,1.7639480829238892
1760966904538975500,7.2959755859375,-10.8573637008667,-7.3160223960876465,0.5878824591636658
1760966904548663600,7.30566357421875,-8.494217872619629,-8.667840003967285,0.059704720973968506
1760966904558352000,7.315351806640625,-6.459640026092529,-9.37095832824707,0.2284119725227356
1760966904568040000,7.3250400390625,-6.058671951293945,-9.463418006896973,1.0330462455749512
1760966904577728000,7.33472802734375,-6.968772888183594,-8.998809814453125,1.8446950912475586
1760966904587416300,7.344416259765625,-8.307292938232422,-8.827584266662598,2.0728225708007812
1760966904597104400,7.3541044921875,-8.906715393066406,-8.62714672088623,2.165614128112793
1760966904606792400,7.36379248046875,-8.849279403686523,-8.158254623413086,2.240300178527832
1760966904616480800,7.373480712890625,-8.273032188415527,-7.590602397918701,2.7345757484436035
1760966904626168800,7.3831689453125,-6.28991174697876,-6.957633018493652,3.021353244781494
1760966904635857000,7.39285693359375,-3.5938878059387207,-6.098550319671631,3.38569974899292
1760966904645545200,7.402545166015625,-1.0642657279968262,-5.276708126068115,4.2299723625183105
1760966904655233300,7.4122333984375,2.2617053985595703,-4.592178821563721,4.7883453369140625
1760966904664921600,7.421921630859375,5.153444290161133,-2.9600415229797363,4.7169599533081055
1760966904674609700,7.431609619140625,6.073324203491211,-0.14208173751831055,4.607016086578369
1760966904684297700,7.441297607421875,3.461711883544922,2.8197102546691895,5.450654029846191
1760966904693985800,7.45098583984375,-1.0204658508300781,5.412856101989746,6.7400312423706055
1760966904703674000,7.460674072265625,-3.651014804840088,7.379968643188477,5.832787990570068
1760966904713362200,7.470362060546875,-2.78712797164917,6.390407085418701,3.8874247074127197
1760966904723050200,7.48005029296875,1.4040136337280273,3.4596118927001953,3.0459401607513428
1760966904732738600,7.489738525390625,8.189658164978027,1.93733549118042,3.3404197692871094
1760966904742426600,7.499426513671875,13.75400161743164,1.4187884330749512,4.483095645904541
1760966904752114700,7.50911474609375,18.4296932220459,0.6253013610839844,4.9038190841674805
1760966904761803000,7.518802978515625,21.29202651977539,0.7810840606689453,3.657060384750366
1760966904771491000,7.528490966796875,19.5898380279541,2.086996078491211,1.5727918148040771
1760966904781179100,7.53817919921875,13.546008110046387,3.4270567893981934,0.11747527122497559
1760966904790867500,7.547867431640625,6.389265060424805,4.694672584533691,-0.1788473129272461
1760966904800555500,7.557555419921875,0.5023403167724609,6.085923671722412,0.5012085437774658
1760966904810243800,7.567243896484375,-3.679706573486328,6.819647312164307,1.7308623790740967
1760966904819932000,7.576931884765625,-6.097043514251709,7.014312267303467,2.9571573734283447
1760966904829620000,7.586619873046875,-6.963221073150635,6.584502696990967,3.485150098800659
1760966904839308000,7.59630810546875,-6.236577987670898,5.282922267913818,2.5858733654022217
1760966904848996400,7.605996337890625,-5.011213302612305,3.4331603050231934,0.35570192337036133
1760966904858684400,7.615684326171875,-3.288370132446289,1.654451847076416,-1.9348034858703613
1760966904868372700,7.625372802734375,-1.7789936065673828,0.25110340118408203,-3.9023549556732178
1760966904878060800,7.635060791015625,-1.4937777519226074,-0.556910514831543,-5.092961311340332
1760966904887748900,7.644748779296875,-1.3772430419921875,-1.187650203704834,-5.607728004455566
1760966904897437000,7.65443701171875,-1.7788758277893066,-1.4114820957183838,-5.897851943969727
1760966904907125200,7.664125244140625,-3.250032901763916,-1.2119886875152588,-5.684247970581055
1760966904916813300,7.673813232421875,-4.97136116027832,-1.20052170753479,-5.551861763000488
1760966904926501400,7.68350146484375,-6.1700873374938965,-1.2758872509002686,-5.585578918457031
1760966904936189700,7.693189697265625,-6.945672988891602,-1.302116870880127,-5.98745059967041
1760966904945877800,7.702877685546875,-7.255483627319336,-1.39613676071167,-6.286377429962158
1760966904955566000,7.712566162109375,-5.818633079528809,-1.8840885162353516,-6.632955074310303
1760966904965254100,7.722254150390625,-3.267307758331299,-1.9543466567993164,-6.873987197875977
1760966904974942200,7.731942138671875,-0.971710205078125,-1.64255952835083,-6.463420867919922
1760966904984630300,7.74163037109375,0.28324222564697266,-1.146780014038086,-5.798391342163086
1760966904994318600,7.751318603515625,0.5495643615722656,-0.5239269733428955,-4.914464473724365
1760966905004006700,7.761006591796875,0.6031856536865234,0.029916763305664062,-4.160513401031494
1760966905013695000,7.770695068359375,1.2443714141845703,1.1252994537353516,-3.7463696002960205
1760966905023383000,7.780383056640625,1.651418685913086,3.0298376083374023,-2.630497694015503
1760966905033071000,7.790071044921875,0.8654909133911133,4.318478107452393,-2.139832019805908
1760966905042759200,7.79975927734375,0.15310001373291016,4.829527378082275,-2.4068307876586914
1760966905052447500,7.809447509765625,0.46520042419433594,4.785808563232422,-1.8417388200759888
1760966905062135600,7.819135498046875,4.179941177368164,4.490935325622559,-0.5212831497192383
1760966905071824000,7.828823974609375,9.4600191116333,3.5771589279174805,0.5809409618377686
1760966905081512000,7.838511962890625,13.664674758911133,1.735825538635254,0.412172794342041
1760966905091200000,7.848199951171875,15.14658260345459,0.7484784126281738,-0.644980788230896
1760966905100888300,7.857888427734375,13.482710838317871,0.38596487045288086,-1.4901202917099
1760966905110576400,7.867576416015625,10.082148551940918,0.1158590316772461,-2.1689701080322266
1760966905120264400,7.877264404296875,7.58555793762207,0.43298768997192383,-2.3018484115600586
1760966905129952800,7.886952880859375,6.6232500076293945,0.6331934928894043,-1.6927626132965088
1760966905139640800,7.896640869140625,6.209183692932129,0.33300161361694336,-0.8334550857543945
1760966905149329000,7.906328857421875,6.145540237426758,0.15788984298706055,0.5679662227630615
1760966905159017200,7.916017333984375,4.780660629272461,0.017705917358398438,1.5659288167953491
1760966905168705300,7.925705322265625,1.904001235961914,-0.4314565658569336,1.6035178899765015
1760966905178393300,7.935393310546875,-1.3574628829956055,-0.8990325927734375,1.2361747026443481
1760966905188081700,7.94508154296875,-3.907710075378418,-0.9367809295654297,1.3880000114440918
1760966905197769700,7.954769775390625,-5.935918807983398,-1.017554759979248,2.1250267028808594
1760966905207457800,7.964457763671875,-7.3307037353515625,-1.0454425811767578,3.0353376865386963
1760966905217146000,7.97414599609375,-8.14529037475586,-1.5618391036987305,2.9168052673339844
1760966905226834200,7.983834228515625,-8.649039268493652,-2.6793103218078613,1.821537733078003
1760966905236522200,7.993522216796875,-8.723235130310059,-4.000597953796387,0.7904679775238037
1760966905246210600,8.00321044921875,-8.1295166015625,-5.337211608886719,0.6395573616027832
1760966905255898600,8.012898681640625,-6.827118873596191,-6.4402337074279785,1.2451422214508057
1760966905265586700,8.022586669921875,-6.035853385925293,-7.008285045623779,1.940764307975769
1760966905275275000,8.03227490234375,-5.704036235809326,-7.235395908355713,2.9610066413879395
1760966905284963000,8.041963134765625,-6.246482849121094,-7.493302345275879,3.693744421005249
1760966905294651100,8.051651123046875,-7.626983165740967,-7.6622819900512695,3.969904899597168
1760966905304339500,8.06133935546875,-9.106620788574219,-7.6996259689331055,4.022351264953613
1760966905314027500,8.071027587890624,-9.825088500976562,-7.444533824920654,3.896312952041626
1760966905323715600,8.080715576171874,-9.231475830078125,-7.091287612915039,3.4567959308624268
1760966905333404000,8.09040380859375,-7.409767150878906,-6.7333664894104,3.3588316440582275
1760966905343092000,8.100092041015625,-4.943316459655762,-6.188985824584961,3.369506359100342
1760966905352780000,8.109780029296875,-1.6381797790527344,-5.324108123779297,3.657214641571045
1760966905362468400,8.11946826171875,2.623455047607422,-4.154797077178955,4.63960599899292
1760966905372156400,8.129156494140625,7.161905288696289,-2.5796523094177246,5.522531509399414
1760966905381844500,8.138844482421876,8.531218528747559,-0.26117515563964844,5.899712562561035
1760966905391532800,8.14853271484375,4.443748474121094,2.0194740295410156,5.018805980682373
1760966905401220900,8.158220947265624,0.5739841461181641,3.6030941009521484,2.332127571105957
1760966905410909000,8.167908935546874,-0.16368961334228516,4.017528533935547,-0.6732186079025269
1760966905420597200,8.17759716796875,1.6577653884887695,2.780076026916504,-1.3069360256195068
1760966905430285300,8.187285400390625,7.326053619384766,1.036841869354248,-0.6022927761077881
1760966905439973600,8.1969736328125,13.910046577453613,0.08239984512329102,1.6537917852401733
1760966905449661700,8.20666162109375,18.56243133544922,0.7273242473602295,4.939986705780029
1760966905459349800,8.216349853515625,20.019495010375977,1.482250452041626,6.181530475616455
1760966905469037800,8.226037841796876,18.86205291748047,2.0984344482421875,4.389942169189453
1760966905478726100,8.23572607421875,14.424044609069824,3.1563785076141357,2.5402698516845703
1760966905488414200,8.245414306640624,8.266779899597168,4.182519435882568,1.989310622215271
1760966905498102500,8.2551025390625,3.2017650604248047,5.195926666259766,1.818981409072876
1760966905507790600,8.26479052734375,-0.5860671997070312,5.768117904663086,1.6517455577850342
1760966905517478700,8.274478759765625,-3.3171095848083496,5.7079386711120605,1.6391699314117432
1760966905527167000,8.2841669921875,-5.279065132141113,5.320738315582275,1.3228306770324707
1760966905536855000,8.29385498046875,-6.555692672729492,4.741156101226807,0.48956823348999023
1760966905546543000,8.303543212890625,-7.299983978271484,3.853330135345459,-0.779539942741394
1760966905556231400,8.3132314453125,-7.848982334136963,2.9696474075317383,-1.967347502708435
1760966905565919500,8.32291943359375,-8.071231842041016,2.057112455368042,-3.1591482162475586
1760966905575607600,8.332607666015624,-7.978208541870117,1.0911848545074463,-4.588306427001953
1760966905585296000,8.3422958984375,-7.635849952697754,0.16730833053588867,-5.753907203674316
1760966905594984000,8.35198388671875,-7.076451301574707,-0.6617882251739502,-6.6034836769104
1760966905604672000,8.361672119140625,-5.639042854309082,-1.2892656326293945,-7.019199371337891
1760966905614360300,8.3713603515625,-3.5866570472717285,-1.8102695941925049,-6.788082599639893
1760966905624048400,8.38104833984375,-2.09043550491333,-2.416574001312256,-6.4264092445373535
1760966905633736700,8.39073681640625,-1.463308334350586,-2.288957118988037,-6.325630187988281
1760966905643424800,8.4004248046875,-2.0799546241760254,-1.8930684328079224,-6.494029998779297
1760966905653112800,8.41011279296875,-3.2119784355163574,-1.7293064594268799,-6.917549133300781
1760966905662801200,8.41980126953125,-3.833991050720215,-1.5559563636779785,-7.464241027832031
1760966905672489200,8.4294892578125,-3.7021169662475586,-1.5860869884490967,-8.202284812927246
1760966905682177300,8.43917724609375,-3.3394641876220703,-1.6202280521392822,-8.62291145324707
1760966905691865600,8.448865478515625,-2.2264928817749023,-1.4061853885650635,-8.236658096313477
1760966905701553700,8.4585537109375,0.14703941345214844,-0.7112982273101807,-7.941216468811035
1760966905711241700,8.46824169921875,2.0007333755493164,0.6796598434448242,-7.435512542724609
1760966905720930000,8.477929931640626,2.9868268966674805,2.059854507446289,-6.305107116699219
1760966905730618000,8.4876181640625,3.630671501159668,3.345665454864502,-3.6926183700561523
1760966905740306400,8.497306396484374,5.759546279907227,4.679133415222168,0.63164222240448
1760966905749994500,8.506994384765624,10.90517520904541,5.838376522064209,4.803532600402832
1760966905759682600,8.5166826171875,15.133844375610352,5.349678993225098,6.2420854568481445
1760966905769371000,8.526370849609375,15.62586784362793,3.7123031616210938,4.617364883422852
1760966905779059000,8.536058837890625,12.409793853759766,2.992220401763916,1.548790454864502
1760966905788747000,8.5457470703125,8.169574737548828,1.7095251083374023,-1.8005092144012451
1760966905798435300,8.555435302734375,4.9780426025390625,0.9664993286132812,-3.5259017944335938
1760966905808123400,8.565123291015626,3.7995996475219727,0.9925704002380371,-2.968672513961792
1760966905817811500,8.5748115234375,5.235278129577637,0.2645101547241211,-1.53169846534729
1760966905827499800,8.584499755859374,7.698168754577637,-0.5691163539886475,0.7490013837814331
1760966905837187800,8.594187744140624,9.777645111083984,-1.000657558441162,3.38771915435791
1760966905846876200,8.603876220703125,9.31961727142334,-1.4903979301452637,4.006087303161621
1760966905856564200,8.613564208984375,5.334133148193359,-2.2973716259002686,3.123734951019287
1760966905866252500,8.62325244140625,1.1322259902954102,-2.650834083557129,1.871313452720642
1760966905875940600,8.632940673828125,-2.3885598182678223,-2.721353054046631,1.3011115789413452
1760966905885628700,8.642628662109376,-4.911567211151123,-2.334923267364502,2.1137571334838867
1760966905895317000,8.65231689453125,-6.317089080810547,-1.8849539756774902,3.328057289123535
1760966905905005000,8.662005126953124,-7.230563163757324,-1.6829586029052734,3.9764492511749268
1760966905914693000,8.671693115234374,-8.125265121459961,-2.0389039516448975,3.6343765258789062
1760966905924381400,8.68138134765625,-9.167694091796875,-2.8301198482513428,2.7866995334625244
1760966905934069500,8.691069580078125,-9.92300796508789,-3.9680070877075195,1.9417197704315186
1760966905943757600,8.700757568359375,-9.446578025817871,-5.139474391937256,1.2368667125701904
1760966905953446000,8.71044580078125,-8.183141708374023,-5.913602828979492,1.1353105306625366
1760966905963134000,8.720134033203125,-7.174485206604004,-6.874836444854736,1.1759635210037231
1760966905972822300,8.729822265625,-6.318888187408447,-7.887851238250732,1.1350475549697876
1760966905982510300,8.73951025390625,-6.1913580894470215,-8.31937026977539,1.5017998218536377
1760966905992198400,8.749198486328124,-6.82710075378418,-8.077589988708496,2.5072574615478516
1760966906001886700,8.75888671875,-7.7613844871521,-7.583629608154297,3.9696712493896484
1760966906011574800,8.76857470703125,-8.313882827758789,-6.979126930236816,5.178382396697998
1760966906021263000,8.77826318359375,-8.214978218078613,-6.322942733764648,5.892393112182617
1760966906030951200,8.787951171875,-7.489554405212402,-5.891538143157959,5.617036819458008
1760966906040639200,8.79763916015625,-6.009951591491699,-5.436827182769775,5.04408073425293
1760966906050327600,8.80732763671875,-3.0739293098449707,-4.264928817749023,4.537853240966797
1760966906060015600,8.817015625,0.01795673370361328,-2.053201198577881,4.193214416503906
1760966906069704000,8.826703857421874,1.0971565246582031,0.5369086265563965,4.5255255699157715
1760966906079392000,8.83639208984375,-0.480135440826416,2.5044431686401367,4.792725563049316
1760966906089080000,8.846080078125,-1.6599445343017578,3.698890209197998,2.9033548831939697
1760966906098768400,8.855768310546875,-0.7949190139770508,3.3175477981567383,0.9639372825622559
1760966906108456400,8.86545654296875,2.8579883575439453,1.0094695091247559,0.39203131198883057
1760966906118144800,8.875144775390625,9.388798713684082,-0.6010327339172363,1.130086898803711
1760966906127832800,8.884832763671875,15.761826515197754,-0.58650803565979,2.5166568756103516
1760966906137521200,8.894521240234376,19.329273223876953,0.5005960464477539,3.9041337966918945
1760966906147209200,8.904209228515626,20.272647857666016,1.3021066188812256,3.483996868133545
1760966906156897500,8.9138974609375,19.477102279663086,2.8448352813720703,1.7472867965698242
1760966906166585600,8.923585693359374,14.998635292053223,4.552742958068848,1.1233794689178467
1760966906176273700,8.933273681640625,8.967268943786621,5.831182956695557,1.7876508235931396
1760966906185962000,8.9429619140625,3.9327144622802734,6.873058319091797,2.682363748550415
1760966906195650000,8.952650146484375,0.1832876205444336,7.253551006317139,3.671537160873413
1760966906205338400,8.96233837890625,-2.5685672760009766,6.925305366516113,4.4976372718811035
1760966906215026400,8.9720263671875,-4.645634651184082,6.000657081604004,3.9242005348205566
1760966906224714500,8.981714599609376,-5.819801330566406,4.6550211906433105,1.9936280250549316
1760966906234402800,8.99140283203125,-5.953831672668457,3.1837282180786133,-0.1816117763519287
1760966906244091000,9.0010908203125,-5.414477348327637,1.3810081481933594,-2.641906499862671
1760966906253779200,9.010779296875,-5.204142093658447,-0.16518878936767578,-5.196684837341309
1760966906263467300,9.02046728515625,-5.481980800628662,-1.2008345127105713,-7.031171798706055
1760966906273155600,9.030155517578125,-5.888665199279785,-1.782566785812378,-7.750856399536133
1760966906282843600,9.03984375,-6.455349922180176,-2.072165012359619,-7.563791275024414
1760966906292532000,9.049531982421875,-7.03096866607666,-2.315878391265869,-6.959326267242432
1760966906302220000,9.059219970703126,-7.3548150062561035,-2.5597710609436035,-6.238358020782471
1760966906311908000,9.068908203125,-7.5935540199279785,-2.427729845046997,-5.41270637512207
1760966906321596400,9.078596435546874,-7.689095497131348,-2.1931605339050293,-4.796181678771973
1760966906331284500,9.088284423828124,-7.214172840118408,-2.073794364929199,-5.204521179199219
1760966906340972800,9.097972900390625,-6.058680534362793,-1.853388786315918,-5.8747239112854
1760966906350660900,9.107660888671875,-4.75225830078125,-1.8085665702819824,-6.342464447021484
1760966906360349200,9.11734912109375,-3.247114658355713,-1.8411035537719727,-6.601998329162598
1760966906370037200,9.127037353515625,-1.8939542770385742,-1.7620501518249512,-7.285274505615234
1760966906379725300,9.136725341796875,-0.4959287643432617,-1.1950669288635254,-7.555306434631348
1760966906389413600,9.14641357421875,1.6477775573730469,-0.00255584716796875,-7.0464372634887695
1760966906399102000,9.15610205078125,3.6785802841186523,1.6039915084838867,-6.574989318847656
1760966906408790000,9.1657900390625,4.178916931152344,2.7443408966064453,-5.3509955406188965
1760966906418478000,9.17547802734375,3.560458183288574,3.869053840637207,-4.2783050537109375
1760966906428166400,9.18516650390625,4.08897590637207,4.693722248077393,-3.2425951957702637
1760966906437854500,9.1948544921875,8.060273170471191,4.794010639190674,-1.7214605808258057
1760966906447542800,9.204542724609375,13.206573486328125,3.633688449859619,-0.11825954914093018
1760966906457230800,9.21423095703125,18.134044647216797,1.5368068218231201,0.5333536863327026
1760966906466919200,9.223919189453126,19.528417587280273,0.5046107769012451,0.7208271026611328
1760966906476607200,9.233607177734376,16.135263442993164,-0.07810640335083008,0.29177892208099365
1760966906486295600,9.243295654296874,11.343456268310547,-0.5205442905426025,-1.409077525138855
1760966906495983600,9.252983642578124,7.369819641113281,-0.32512712478637695,-2.448566436767578
1760966906505672000,9.262671875,4.93886661529541,0.23998546600341797,-2.2813963890075684
1760966906515360000,9.272360107421875,4.135006904602051,0.7535452842712402,-0.9024136066436768
1760966906525048300,9.28204833984375,4.620877265930176,0.7391819953918457,0.44994020462036133
1760966906534736400,9.291736328125,4.607603073120117,0.24179363250732422,1.1097195148468018
1760966906544424700,9.3014248046875,3.259638786315918,-0.482022762298584,1.4567331075668335
1760966906554112800,9.31111279296875,1.3010540008544922,-1.2283599376678467,1.386132836341858
1760966906563800800,9.32080078125,-0.5207948684692383,-1.958024501800537,1.0297119617462158
1760966906573489200,9.3304892578125,-2.200392246246338,-2.293609857559204,1.4571057558059692
1760966906583177200,9.34017724609375,-3.751739978790283,-2.3990375995635986,2.806877851486206
1760966906592865500,9.349865478515625,-4.941864013671875,-2.6046390533447266,4.176145553588867
1760966906602553600,9.3595537109375,-5.730336666107178,-3.048259973526001,4.816311359405518
1760966906612242000,9.369241943359375,-6.545062065124512,-3.641334056854248,4.57765531539917
1760966906621930000,9.378929931640625,-7.258966445922852,-4.266468048095703,3.89016056060791
1760966906631618300,9.388618408203126,-7.495766639709473,-5.2335309982299805,2.885716438293457
1760966906641306400,9.398306396484376,-7.215992450714111,-6.355324745178223,2.018153190612793
1760966906650994700,9.40799462890625,-6.88291072845459,-6.962776184082031,1.4813261032104492
1760966906660682800,9.417682861328124,-6.834114074707031,-7.085113525390625,1.6080107688903809
1760966906670371000,9.42737109375,-6.926394462585449,-7.306133270263672,1.9056382179260254
1760966906680059100,9.43705908203125,-7.445852756500244,-7.3133745193481445,2.4363129138946533
1760966906689747500,9.44674755859375,-8.095452308654785,-6.874109268188477,3.149982452392578
1760966906699435500,9.456435546875,-8.371108055114746,-6.488859176635742,3.3516714572906494
1760966906709123800,9.466123779296876,-7.893176555633545,-6.364093780517578,3.1279242038726807
1760966906718812000,9.47581201171875,-6.488209247589111,-5.973444938659668,2.6888914108276367
1760966906728500200,9.485500244140624,-4.494443893432617,-5.380505561828613,2.540686845779419
1760966906738188300,9.495188232421874,-1.876901626586914,-4.474693298339844,2.8610501289367676
1760966906747876600,9.504876708984375,1.6476221084594727,-2.501527786254883,3.6341300010681152
1760966906757564700,9.514564697265625,2.946476936340332,-0.16708087921142578,5.091382026672363
1760966906767253000,9.5242529296875,0.9903993606567383,2.344393730163574,6.966127872467041
1760966906776941000,9.533941162109375,-1.5098390579223633,5.053674697875977,6.385954856872559
1760966906786629400,9.54362939453125,-1.712350845336914,6.092668056488037,2.6112303733825684
1760966906796317400,9.5533173828125,0.20337772369384766,4.216677665710449,0.19254660606384277
1760966906806005800,9.563005859375,4.310920715332031,2.126008987426758,0.4229240417480469
1760966906815693800,9.57269384765625,9.705495834350586,1.4839882850646973,2.6185038089752197
1760966906825382100,9.582382080078125,15.397011756896973,1.332754135131836,5.502590656280518
1760966906835070200,9.5920703125,20.226879119873047,1.49517822265625,6.565229415893555
1760966906844758500,9.601758544921875,20.97486686706543,2.3229317665100098,5.594429016113281
1760966906854446600,9.611446533203125,16.428791046142578,3.295133113861084,4.552946090698242
1760966906864135000,9.621135009765625,9.561500549316406,3.8392205238342285,3.37796688079834
1760966906873823000,9.630822998046876,3.3176631927490234,4.343747138977051,2.299729347229004
1760966906883511000,9.640510986328126,-1.869288444519043,4.9135565757751465,1.5902142524719238
1760966906893199400,9.650199462890624,-5.658203125,4.801812171936035,0.9367880821228027
1760966906902887700,9.6598876953125,-7.369102478027344,4.115366458892822,0.1864769458770752
1760966906912575700,9.66957568359375,-7.704197406768799,3.2760753631591797,-0.6720085144042969
1760966906922263800,9.679263916015625,-7.304414749145508,2.3059463500976562,-1.267234206199646
1760966906931952000,9.6889521484375,-6.561575889587402,1.3666296005249023,-1.991113305091858
1760966906941640400,9.698640380859375,-6.010580062866211,0.3078136444091797,-3.0180556774139404
1760966906951328500,9.70832861328125,-5.290217399597168,-0.5638132095336914,-4.129776477813721
1760966906961016600,9.7180166015625,-4.545957565307617,-1.3057804107666016,-5.343428611755371
1760966906970705000,9.727704833984374,-4.25133752822876,-1.9227492809295654,-6.406589508056641
1760966906980393200,9.737393310546874,-4.854933261871338,-2.148944616317749,-7.075353145599365
1760966906990081300,9.747081298828125,-5.946559906005859,-2.2164697647094727,-7.742779731750488
1760966906999769300,9.756769287109375,-6.716525554656982,-2.381563186645508,-8.358509063720703
1760966907009457700,9.766457763671875,-6.6811017990112305,-2.5024704933166504,-8.891637802124023
1760966907019145700,9.776145751953125,-5.666375637054443,-2.6106324195861816,-9.005898475646973
1760966907028834000,9.785833984375,-4.007005214691162,-2.4896492958068848,-8.685510635375977
1760966907048210400,9.80521044921875,-0.6298494338989258,-2.482618808746338,-7.965024948120117
1760966907057898500,9.8148984375,0.6540803909301758,-2.088028907775879,-7.057123184204102
1760966907067586800,9.8245869140625,0.9542970657348633,-1.0931775569915771,-5.994200229644775
1760966907077275000,9.83427490234375,0.8231830596923828,0.3660717010498047,-4.8760294914245605
1760966907086963200,9.843963134765625,0.4944009780883789,2.1495795249938965,-3.579359531402588
1760966907096651300,9.8536513671875,-0.17863178253173828,3.634891986846924,-2.9976413249969482
1760966907106339600,9.863339599609375,-0.34390974044799805,5.081804275512695,-1.8129997253417969
1760966907116028000,9.87302783203125,1.6869745254516602,6.502936363220215,0.44954371452331543
1760966907125716000,9.882716064453126,7.437582015991211,7.371272087097168,2.8921852111816406
1760966907135404000,9.892404052734374,13.747366905212402,6.355316162109375,4.138923645019531
1760966907145092400,9.90209228515625,18.68649673461914,3.8978443145751953,3.6731390953063965
1760966907154780400,9.911780517578125,20.342702865600586,2.175992488861084,1.6486303806304932
1760966907164468700,9.92146875,18.29104995727539,0.4945068359375,-0.04940080642700195
1760966907174156800,9.93115673828125,15.223520278930664,-0.3450198173522949,-1.8788611888885498
1760966907183845000,9.94084521484375,11.641888618469238,-0.03376340866088867,-3.2859292030334473
1760966907193533200,9.950533203125,8.885258674621582,-0.0715799331665039,-2.9594826698303223
1760966907203221500,9.960221435546876,7.53443717956543,-0.19756746292114258,-1.8514549732208252
1760966907212909600,9.96990966796875,6.85548210144043,-0.6607613563537598,-0.08509719371795654
1760966907222598000,9.979597900390624,6.262351989746094,-1.2131571769714355,2.0082075595855713
1760966907232286000,9.989285888671875,4.134600639343262,-1.652341365814209,3.3767452239990234
1760966907241974300,9.998974365234375,1.0262346267700195,-2.0802721977233887,3.679248332977295
1760966907251662300,10.008662353515625,-2.151294708251953,-2.327160358428955,3.4220166206359863
1760966907261350700,10.0183505859375,-5.242487907409668,-2.219974994659424,3.0889463424682617
1760966907271038700,10.028038818359375,-7.9624505043029785,-2.018463134765625,2.6631860733032227
1760966907280727000,10.03772705078125,-10.136284828186035,-2.307840585708618,1.742700457572937
1760966907290415000,10.0474150390625,-11.887475967407227,-3.2265021800994873,0.7386484146118164
1760966907300103400,10.057103515625,-12.991750717163086,-4.473318099975586,0.03783535957336426
1760966907309791500,10.06679150390625,-13.077777862548828,-5.801692008972168,-0.023115158081054688
1760966907319479800,10.076479736328125,-11.651769638061523,-6.991259574890137,0.25621628761291504
1760966907329168000,10.08616796875,-9.458658218383789,-7.817273139953613,0.5942476987838745
1760966907338856200,10.095856201171875,-7.416146755218506,-8.695964813232422,0.7144238948822021
1760966907348544300,10.105544189453125,-5.973329544067383,-9.608663558959961,0.7620198726654053
1760966907358232600,10.115232666015626,-5.4236907958984375,-9.95882511138916,1.788812279701233
1760966907367920600,10.124920654296876,-5.368586540222168,-9.246200561523438,3.5577938556671143
1760966907377609000,10.13460888671875,-5.804731369018555,-8.217390060424805,4.9737725257873535
1760966907387297000,10.144297119140624,-6.632956504821777,-7.210582256317139,5.831082820892334
1760966907396985300,10.1539853515625,-6.672751426696777,-6.07282829284668,6.499190330505371
1760966907406673400,10.16367333984375,-4.9900407791137695,-5.13796854019165,6.997030735015869
1760966907416361700,10.17336181640625,-1.9712018966674805,-4.700352191925049,6.965888023376465
1760966907426049800,10.1830498046875,2.2086782455444336,-4.021083354949951,6.210736274719238
1760966907435738000,10.192738037109375,5.772599220275879,-2.4789247512817383,5.419489860534668
1760966907445426200,10.20242626953125,4.933291435241699,-0.7757134437561035,4.427387714385986
1760966907455114500,10.212114501953126,0.6685628890991211,1.1672263145446777,2.8303561210632324
1760966907464802600,10.221802490234374,-3.1160836219787598,3.942234516143799,0.473783016204834
1760966907474490600,10.23149072265625,-3.529794692993164,4.886258125305176,-1.099877119064331
1760966907484179000,10.241178955078125,-0.7943968772888184,2.720966339111328,-0.8886723518371582
1760966907493867300,10.2508671875,5.273894309997559,1.4906482696533203,0.31867551803588867
1760966907503555300,10.260555419921875,11.595733642578125,1.5432171821594238,1.6306535005569458
1760966907513243400,10.270243408203125,16.537933349609375,1.9549813270568848,2.7519044876098633
1760966907522931700,10.279931640625,19.03182601928711,3.28410005569458,3.602745532989502
1760966907532620000,10.2896201171875,17.690574645996094,4.918883800506592,3.3578217029571533
1760966907542308000,10.29930810546875,12.953721046447754,6.341207981109619,2.8506174087524414
1760966907551996200,10.30899609375,7.872303009033203,7.00877046585083,2.4202868938446045
1760966907561684500,10.3186845703125,3.367595672607422,7.031845569610596,1.9715697765350342
1760966907571372800,10.328372802734375,-0.3705873489379883,6.680386066436768,1.5719122886657715
1760966907581060900,10.338060791015625,-3.0060529708862305,5.869418144226074,0.6686780452728271
1760966907590749000,10.3477490234375,-4.589625358581543,4.699756145477295,-0.5668632984161377
1760966907600437200,10.357437255859375,-5.438323020935059,3.5763564109802246,-1.576683759689331
1760966907610125300,10.367125244140626,-5.785462379455566,2.552873134613037,-2.238672971725464
1760966907619813600,10.376813720703124,-5.5474748611450195,1.5141677856445312,-3.0621767044067383
1760966907629501700,10.386501708984374,-5.326554298400879,0.8404245376586914,-3.7588303089141846
1760966907639190000,10.39618994140625,-5.653017997741699,0.5081801414489746,-4.084205627441406
1760966907648878000,10.405878173828125,-6.220821380615234,0.19911956787109375,-4.4960503578186035
1760966907658566400,10.41556640625,-6.510977745056152,-0.10772562026977539,-5.004584312438965
1760966907668254500,10.42525439453125,-6.504979133605957,-0.27796506881713867,-5.503328323364258
1760966907677942800,10.43494287109375,-6.071108818054199,-0.37798261642456055,-5.703483581542969
1760966907687630800,10.444630859375,-5.226737976074219,-0.28865671157836914,-5.512633323669434
1760966907697319200,10.454319091796876,-3.589423656463623,-0.3236813545227051,-4.860296249389648
1760966907707007200,10.46400732421875,-1.6405553817749023,-0.705197811126709,-5.087286949157715
1760966907716695600,10.473695556640624,-0.40080928802490234,-1.0003864765167236,-5.617049694061279
1760966907726383600,10.483383544921875,0.2904634475708008,-1.027355432510376,-6.591740608215332
1760966907736072000,10.493072021484375,0.26593780517578125,-1.0476722717285156,-7.878704071044922
1760966907745760000,10.502760009765625,0.16764450073242188,-0.762340784072876,-8.465927124023438
1760966907755448300,10.5124482421875,0.5726003646850586,-0.10724401473999023,-8.7318115234375
1760966907765136400,10.522136474609376,1.8089122772216797,0.9445257186889648,-8.407140731811523
1760966907774824700,10.53182470703125,3.3655433654785156,2.5432567596435547,-7.6737260818481445
1760966907784512800,10.5415126953125,4.299427032470703,4.011646270751953,-6.264925956726074
1760966907794201000,10.551201171875,5.3071393966674805,4.928812503814697,-4.140017032623291
1760966907803889400,10.560889404296875,7.434685707092285,5.363073825836182,-1.6231859922409058
1760966907813577500,10.570577392578125,12.32520580291748,5.5048370361328125,1.010585069656372
1760966907823265500,10.580265625,17.561771392822266,4.186398983001709,2.9792613983154297
1760966907832953900,10.589953857421875,19.44366455078125,2.597475528717041,2.886714458465576
1760966907842642200,10.59964208984375,17.31926155090332,1.59088134765625,0.8712613582611084
1760966907852330200,10.609330322265626,13.77777099609375,0.2579803466796875,-0.48555317521095276
1760966907862018600,10.6190185546875,10.501458168029785,-0.6724300384521484,-1.9918828010559082
1760966907871706600,10.62870654296875,8.902031898498535,-1.2954087257385254,-3.0544180870056152
1760966907881394700,10.638394775390625,8.831631660461426,-1.5017013549804688,-2.810455799102783
1760966907891083000,10.6480830078125,8.121892929077148,-1.7735986709594727,-1.3991456031799316
1760966907900771300,10.657771240234375,6.5496625900268555,-1.6407670974731445,2.2279927730560303
1760966907910459400,10.66745947265625,3.494199752807617,-1.2362499237060547,4.928752422332764
1760966907920147700,10.677147705078125,-1.0993037223815918,-1.351874828338623,5.576275825500488
1760966907929835800,10.686835693359376,-5.815932273864746,-1.823509693145752,4.974740028381348
1760966907939524000,10.696524169921876,-9.198022842407227,-2.3938217163085938,4.472333908081055
1760966907949212200,10.706212158203124,-10.485383987426758,-2.234353542327881,4.9588942527771
1760966907958900500,10.715900390625,-10.274988174438477,-2.21913480758667,5.639832973480225
1760966907968588500,10.725588623046875,-10.149015426635742,-2.771298885345459,5.587324619293213
1760966907978276900,10.73527685546875,-10.143705368041992,-3.9347517490386963,4.8869733810424805
1760966907987965000,10.74496484375,-10.090316772460938,-5.499045372009277,3.73832368850708
1760966907997653200,10.7546533203125,-8.770503997802734,-7.451239585876465,2.5786337852478027
1760966908007341300,10.76434130859375,-6.300940990447998,-9.231337547302246,2.1065011024475098
1760966908017029600,10.774029541015626,-4.679162979125977,-10.742050170898438,1.417919397354126
1760966908026717700,10.7837177734375,-4.572057723999023,-11.834392547607422,0.5632797479629517
1760966908036406000,10.793406005859374,-5.687630653381348,-12.436836242675781,0.01105797290802002
1760966908046094000,10.803093994140625,-7.023333549499512,-12.612001419067383,-0.03341984748840332
1760966908055782400,10.812782470703125,-8.337442398071289,-12.251829147338867,0.14912152290344238
1760966908065470700,10.822470703125,-9.271620750427246,-11.596460342407227,0.9519115686416626
1760966908075158800,10.83215869140625,-8.970539093017578,-10.941688537597656,2.1001462936401367
1760966908084847000,10.84184716796875,-7.67891263961792,-9.92390251159668,3.068345785140991
1760966908094535200,10.85153515625,-5.96100378036499,-8.948484420776367,4.255366325378418
1760966908104223500,10.861223388671876,-4.4607696533203125,-8.050943374633789,5.404974937438965
1760966908113911600,10.87091162109375,-2.9322729110717773,-6.656005859375,6.399281978607178
1760966908123600000,10.880599853515625,-0.3886585235595703,-4.542415618896484,7.065264701843262
1760966908133288000,10.890287841796875,2.2508792877197266,-1.786287784576416,7.270467758178711
1760966908142976300,10.899976318359375,2.5129599571228027,0.764716625213623,6.994499206542969
1760966908152664300,10.909664306640625,0.6239852905273438,3.424105167388916,5.537471771240234
1760966908162352600,10.9193525390625,-2.7140302658081055,6.508662700653076,2.519379138946533
1760966908172040700,10.929040771484376,-3.6935622692108154,8.259664535522461,0.0036858320236206055
1760966908181729000,10.93872900390625,-0.783139705657959,5.942819595336914,-2.0590269565582275
1760966908191417000,10.9484169921875,5.667904376983643,4.052586555480957,-3.3381361961364746
1760966908201105400,10.95810546875,12.859536170959473,3.674862861633301,-0.8578832149505615
1760966908210793700,10.967793701171875,20.38378143310547,3.3969950675964355,2.174684524536133
1760966908220481800,10.977481689453125,26.626169204711914,4.324632167816162,3.5643959045410156
1760966908230170000,10.987170166015625,27.299671173095703,5.725072383880615,3.392369270324707
1760966908239858200,10.996858154296875,21.82390022277832,6.964445114135742,3.306335687637329
1760966908249546500,11.00654638671875,13.995192527770996,7.546936511993408,3.021777629852295
1760966908259234600,11.016234619140626,7.280881881713867,7.497548580169678,1.7752244472503662
1760966908268923000,11.0259228515625,1.7270030975341797,6.990658760070801,1.000566005706787
1760966908278611000,11.03561083984375,-2.6716208457946777,6.508553504943848,0.7851259708404541
1760966908288299300,11.04529931640625,-5.731942176818848,5.649125576019287,0.3711106777191162
1760966908297987600,11.054987548828125,-7.4453840255737305,4.450801372528076,-0.48097991943359375
1760966908307675600,11.064675537109375,-8.547173500061035,3.4535021781921387,-1.0750043392181396
1760966908317364000,11.074364013671875,-8.838006973266602,2.540154457092285,-1.4547067880630493
1760966908327052000,11.084052001953125,-8.47109317779541,1.5278129577636719,-2.039057970046997
1760966908336740400,11.093740234375,-7.906286239624023,0.33859968185424805,-3.4242334365844727
1760966908346428400,11.103428466796874,-7.632179260253906,-0.7399945259094238,-5.004049301147461
1760966908356116700,11.11311669921875,-6.28276252746582,-2.0168960094451904,-6.365283966064453
1760966908365804800,11.1228046875,-4.2993645668029785,-3.08780837059021,-7.719974994659424
1760966908375493000,11.1324931640625,-3.5712246894836426,-3.6178600788116455,-8.819541931152344
1760966908385181400,11.142181396484375,-3.3130922317504883,-3.5836403369903564,-9.457525253295898
1760966908394869500,11.151869384765625,-3.145289897918701,-3.2219252586364746,-9.22304916381836
1760966908404557800,11.161557861328125,-3.149364471435547,-2.7957019805908203,-8.448580741882324
1760966908414246000,11.171245849609376,-3.151651382446289,-1.9295098781585693,-7.422031402587891
1760966908423934200,11.180934326171876,-3.9018936157226562,-0.9731183052062988,-6.669890880584717
1760966908433622300,11.190622314453124,-4.229236125946045,-0.49993324279785156,-6.3077263832092285
1760966908443310600,11.200310546875,-2.6544227600097656,-0.19470548629760742,-6.641185760498047
1760966908452999000,11.2099990234375,-0.533055305480957,0.5305666923522949,-7.530168056488037
1760966908462687000,11.21968701171875,1.7501859664916992,1.9672517776489258,-7.468735694885254
1760966908472375300,11.229375244140625,4.781903266906738,4.014807224273682,-6.524868011474609
1760966908482063400,11.2390634765625,7.443520545959473,6.1215009689331055,-5.141701698303223
1760966908491751700,11.248751708984376,9.30231761932373,7.030062198638916,-3.206211566925049
1760966908501439700,11.258439697265626,11.951119422912598,6.8515801429748535,-0.603561282157898
1760966908511128000,11.268128173828124,16.141799926757812,6.8108906745910645,2.2208428382873535
1760966908520816400,11.27781640625,18.91946792602539,5.3721489906311035,4.601296424865723
1760966908530504400,11.28750439453125,18.382568359375,4.021756649017334,5.116512298583984
1760966908540192800,11.29719287109375,13.6611328125,3.3714213371276855,3.3449931144714355
1760966908549880800,11.306880859375,7.689267158508301,2.5375146865844727,1.0141091346740723
1760966908559569200,11.316569091796875,2.6421871185302734,1.764266014099121,-0.928687572479248
1760966908569257200,11.32625732421875,0.6567106246948242,0.7567839622497559,-2.379477024078369
1760966908578945500,11.335945556640626,1.7424259185791016,-0.2465672492980957,-2.5713741779327393
1760966908588633900,11.3456337890625,2.881235122680664,-1.5256495475769043,-2.053410530090332
1760966908598322000,11.355322021484374,3.6187334060668945,-2.405316114425659,-0.5940122008323669
1760966908608010200,11.36501025390625,2.9696121215820312,-3.0038139820098877,0.9491993188858032
1760966908617698300,11.3746982421875,0.6614274978637695,-3.741111993789673,2.1106371879577637
1760966908627386600,11.38438671875,-1.8074440956115723,-4.419200897216797,2.5737526416778564
1760966908637074700,11.39407470703125,-4.273807525634766,-4.826967716217041,2.9445090293884277
1760966908646763000,11.403762939453125,-6.424675941467285,-4.599459648132324,3.9607949256896973
1760966908656451300,11.413451416015626,-8.324853897094727,-4.423503875732422,5.160480499267578
1760966908666139400,11.423139404296874,-10.257031440734863,-4.565752029418945,5.779021739959717
1760966908675827700,11.43282763671875,-12.086030960083008,-5.122215270996094,5.175422191619873
1760966908685516000,11.44251611328125,-13.308805465698242,-6.380280017852783,3.8514180183410645
1760966908695204000,11.4522041015625,-13.65256404876709,-7.963011741638184,2.3551812171936035
1760966908704892400,11.461892333984375,-12.679452896118164,-9.545769691467285,1.364899754524231
1760966908714580500,11.47158056640625,-10.23354721069336,-11.374673843383789,1.0258880853652954
1760966908724268800,11.481268798828125,-7.729736804962158,-12.849903106689453,0.7659690380096436
1760966908733957000,11.49095703125,-5.344590187072754,-13.28640365600586,1.1921056509017944
1760966908743645200,11.500645263671874,-3.724515914916992,-12.628608703613281,2.638997793197632
1760966908753333500,11.51033349609375,-2.8470993041992188,-11.478774070739746,4.684098243713379
1760966908763021600,11.520021484375,-2.5189266204833984,-10.112373352050781,6.688870429992676
1760966908772710000,11.5297099609375,-3.127063274383545,-8.713421821594238,7.433167457580566
1760966908782398000,11.53939794921875,-3.4611001014709473,-7.619204998016357,6.861564636230469
1760966908792086300,11.549086181640625,-2.5620718002319336,-6.4748148918151855,5.927186965942383
1760966908801774600,11.558774658203125,-0.04812431335449219,-5.027883529663086,5.749326705932617
1760966908811462700,11.568462646484376,3.4190168380737305,-2.47007155418396,6.436741352081299
1760966908821151000,11.57815087890625,6.2315354347229,1.1711606979370117,8.120412826538086
1760966908830839000,11.587839111328124,5.564975261688232,4.174437522888184,8.371573448181152
1760966908840527400,11.59752734375,1.7567262649536133,4.9118523597717285,4.920126438140869
1760966908850215700,11.607215576171875,-1.0496330261230469,5.212052345275879,-0.6480854749679565
1760966908859903700,11.61690380859375,0.46045351028442383,4.179413795471191,-3.815427303314209
1760966908869592000,11.626592041015625,5.788941383361816,3.261274814605713,-4.288183689117432
1760966908879280400,11.6362802734375,11.012237548828125,3.5955400466918945,-3.1876864433288574
1760966908888968400,11.645968505859376,14.954906463623047,3.6187939643859863,-0.5532516241073608
1760966908898656800,11.65565673828125,18.685386657714844,3.6745243072509766,0.06966078281402588
1760966908908344800,11.6653447265625,20.187278747558594,4.215456008911133,-0.8568040132522583
1760966908918033200,11.675033203125,17.17733383178711,5.542341709136963,-1.5331783294677734
1760966908927721500,11.684721435546875,10.61007308959961,7.309341907501221,-1.234392523765564
1760966908937409500,11.694409423828125,4.977952003479004,8.137090682983398,-0.78312087059021
1760966908947097900,11.704097900390625,0.7045125961303711,7.854433536529541,-0.0851445198059082
1760966908956786000,11.713785888671875,-2.753551483154297,7.381324768066406,0.4624147415161133
1760966908966474200,11.72347412109375,-5.2196431159973145,6.570473670959473,0.926093578338623
1760966908976162600,11.73316259765625,-6.4773430824279785,5.466635704040527,1.4973387718200684
1760966908985850600,11.7428505859375,-6.659109115600586,4.181540489196777,1.3845019340515137
1760966908995539000,11.7525390625,-6.164088249206543,2.5089292526245117,0.40409183502197266
1760966909005227000,11.76222705078125,-5.291171073913574,1.1713051795959473,-0.9047896862030029
1760966909014915300,11.771915283203125,-4.504279136657715,0.010073184967041016,-2.321350574493408
1760966909024603600,11.781603759765625,-4.188204765319824,-0.847510814666748,-3.6497373580932617
1760966909034291700,11.791291748046875,-4.818447113037109,-1.551915168762207,-5.0275959968566895
1760966909043980000,11.80097998046875,-5.9893999099731445,-1.929173469543457,-5.675543785095215
1760966909053668400,11.81066845703125,-6.654814720153809,-2.1588728427886963,-5.920904636383057
1760966909063356400,11.8203564453125,-6.266024589538574,-2.11484432220459,-6.142116546630859
1760966909073044700,11.830044677734374,-5.424271106719971,-2.313852310180664,-6.444521903991699
1760966909082732800,11.83973291015625,-3.862576961517334,-2.4744491577148438,-6.376713752746582
1760966909092421000,11.849421142578125,-2.0508780479431152,-2.3197367191314697,-6.067446231842041
1760966909102109400,11.859109375,-0.581446647644043,-2.497199773788452,-6.557194709777832
1760966909111797500,11.868797607421875,0.3768768310546875,-2.4532623291015625,-7.570180892944336
1760966909121485800,11.87848583984375,0.5864934921264648,-2.008073329925537,-8.126431465148926
1760966909131174100,11.888174072265626,0.7878170013427734,-1.1914281845092773,-7.749307632446289
1760966909150550500,11.907550537109374,3.1368064880371094,2.0238075256347656,-6.3553056716918945
1760966909169927000,11.926927001953125,3.171910285949707,6.735464572906494,-3.2646725177764893
1760966909179615200,11.936615234375,4.480467796325684,7.4290971755981445,-0.30589568614959717
1760966909189303300,11.94630322265625,8.780344009399414,7.920292854309082,2.141714572906494
1760966909198991600,11.95599169921875,13.239094734191895,6.893836975097656,3.7583694458007812
1760966909208680000,11.965679931640626,15.559626579284668,4.777064323425293,3.801746368408203
1760966909218368000,11.975367919921876,14.104507446289062,4.566211223602295,2.879063844680786
1760966909228056300,11.985056396484374,9.934884071350098,4.175533294677734,1.273163080215454
1760966909237744400,11.994744384765625,5.856895446777344,3.2224230766296387,-0.9618725776672363
1760966909247432700,12.0044326171875,3.9719982147216797,2.377824306488037,-2.840407371520996
1760966909257121000,12.01412109375,5.432564735412598,1.1967535018920898,-3.3684279918670654
1760966909266809000,12.02380908203125,6.985040664672852,-0.22236013412475586,-2.245482921600342
1760966909276497400,12.033497314453125,7.995092391967773,-1.2979230880737305,0.04985859990119934
1760966909286185500,12.043185546875,7.294980049133301,-2.0036094188690186,1.9270446300506592
1760966909295873800,12.052873779296876,4.469717979431152,-2.991988182067871,2.5267791748046875
1760966909305562000,12.06256201171875,1.0181846618652344,-3.7564220428466797,2.145453691482544
1760966909315250200,12.072250244140625,-2.921055793762207,-3.9958558082580566,1.8952522277832031
1760966909324938500,12.0819384765625,-6.203648567199707,-3.9219818115234375,2.400911331176758
1760966909334626800,12.091626708984375,-7.98561429977417,-3.345430850982666,3.307246208190918
1760966909344315000,12.10131494140625,-9.302901268005371,-3.025097608566284,3.8255598545074463
1760966909354003200,12.111003173828125,-10.7703218460083,-3.290330171585083,3.86936354637146
1760966909363691300,12.120691162109376,-11.660501480102539,-3.9448792934417725,3.577942371368408
1760966909373379600,12.130379638671876,-11.409503936767578,-5.144052982330322,3.11466646194458
1760966909383068000,12.14006787109375,-9.742156982421875,-6.404232501983643,2.929755449295044
1760966909392756000,12.149755859375,-7.906536102294922,-7.414638519287109,2.9878993034362793
1760966909402444300,12.1594443359375,-6.262685775756836,-8.487390518188477,2.9815144538879395
1760966909412132400,12.16913232421875,-5.538143157958984,-9.430087089538574,3.0298919677734375
1760966909421820700,12.178820556640625,-5.856762409210205,-9.867269515991211,3.2053544521331787
1760966909431509000,12.188509033203125,-6.671173572540283,-9.9886474609375,3.117809772491455
1760966909441197000,12.198197021484376,-7.255346298217773,-9.929553985595703,2.6517348289489746
1760966909450885400,12.207885498046876,-7.233283042907715,-9.60239028930664,2.5967864990234375
1760966909460573400,12.217573486328124,-6.341520309448242,-8.667076110839844,3.2991833686828613
1760966909470261800,12.22726171875,-4.6820387840271,-7.332183837890625,4.273383140563965
1760966909479950000,12.2369501953125,-2.169745922088623,-6.118241310119629,4.69197416305542
1760966909489638100,12.24663818359375,0.8222780227661133,-4.281103610992432,4.459049224853516
1760966909499326500,12.256326416015625,3.082396984100342,-1.1846227645874023,4.588747024536133
1760966909509014800,12.266014892578125,3.6951255798339844,3.1051974296569824,5.479281425476074
1760966909518702800,12.275702880859376,2.1058316230773926,6.353952407836914,5.490434169769287
1760966909528391200,12.28539111328125,-1.3720502853393555,7.764580249786377,3.3633196353912354
1760966909538079200,12.295079345703124,-3.0631794929504395,8.43226432800293,-0.9350579977035522
1760966909547767600,12.304767578125,-1.061638355255127,6.179727554321289,-3.407365322113037
1760966909557456000,12.314455810546875,4.8124470710754395,3.719599723815918,-4.18084716796875
1760966909567144000,12.32414404296875,10.553754806518555,3.2709202766418457,-2.587385654449463
1760966909576832300,12.333832275390625,15.424311637878418,2.990725040435791,1.711456537246704
1760966909586520300,12.343520263671875,19.4051456451416,3.2262682914733887,3.884146213531494
1760966909596208600,12.353208740234376,20.403263092041016,4.358922958374023,4.0500993728637695
1760966909605897000,12.36289697265625,16.916065216064453,5.300624370574951,3.54556941986084
1760966909615585000,12.3725849609375,9.884356498718262,5.421319007873535,1.7840874195098877
1760966909625273300,12.3822734375,2.3080453872680664,5.303597927093506,0.602973222732544
1760966909634961400,12.39196142578125,-4.88283109664917,5.718734264373779,1.2063343524932861
1760966909644649700,12.401649658203125,-9.913871765136719,5.70365047454834,1.7874464988708496
1760966909654338000,12.411338134765625,-11.162726402282715,3.9500341415405273,1.3542230129241943
1760966909664026000,12.421026123046875,-8.833586692810059,1.5334768295288086,-0.08551311492919922
1760966909673714400,12.43071435546875,-4.365438461303711,-0.4240260124206543,-1.7580108642578125
1760966909683402800,12.44040283203125,0.30329418182373047,-2.285578489303589,-3.068366527557373
1760966909693090800,12.4500908203125,4.202801704406738,-3.3155884742736816,-4.355805397033691
1760966909702779100,12.459779052734374,6.028609275817871,-2.9732766151428223,-4.409120082855225
1760966909712467200,12.46946728515625,5.7816314697265625,-2.7303900718688965,-3.9219326972961426
1760966909722155500,12.479155517578125,3.656947135925293,-2.6449429988861084,-4.183073997497559
1760966909731843800,12.48884375,0.817936897277832,-2.5890636444091797,-4.772234916687012
1760966909741532000,12.498531982421875,-1.9107842445373535,-2.738741874694824,-5.705453872680664
1760966909751220200,12.50822021484375,-4.076726913452148,-2.63970947265625,-6.418557167053223
1760966909760908300,12.517908203125,-5.591275691986084,-2.376909017562866,-6.42585563659668
1760966909770596600,12.5275966796875,-6.575137138366699,-2.1284375190734863,-5.894161224365234
1760966909780285000,12.537284912109374,-6.662919521331787,-1.985682487487793,-5.1827073097229
1760966909789973000,12.546972900390625,-5.556827545166016,-1.824770450592041,-5.211629390716553
1760966909799661300,12.556661376953125,-3.1856799125671387,-1.6189773082733154,-5.44516658782959
1760966909809349400,12.566349365234375,-0.9328598976135254,-1.399688720703125,-5.962696552276611
1760966909819037700,12.57603759765625,0.27872562408447266,-0.8397946357727051,-6.322662353515625
1760966909828725800,12.585725830078125,0.20120716094970703,0.24402570724487305,-6.614129066467285
1760966909838414000,12.5954140625,-0.4871792793273926,1.830904483795166,-5.959794521331787
1760966909848102400,12.605102294921876,-1.1303138732910156,3.3952579498291016,-4.210280418395996
1760966909857790500,12.61479052734375,-2.1068115234375,4.440126419067383,-1.603943109512329
1760966909867478800,12.624478759765625,-1.7108039855957031,5.063304424285889,1.125837802886963
1760966909877166800,12.634166748046875,2.3187637329101562,5.469646453857422,2.79843807220459
