time,seconds_elapsed,z,y,x
1760898175921476400,0.241476318359375,-0.2730722427368164,0.1280907392501831,-0.08376657962799072
1760898175931163600,0.25116357421875,-0.4966135025024414,0.07296013832092285,-0.2136598825454712
1760898175940850700,0.2608505859375,-1.059011459350586,-0.2272416353225708,-0.5212576389312744
1760898175950538000,0.2705380859375,-0.006168365478515625,-0.015452265739440918,-0.18297970294952393
1760898175960225000,0.28022509765625,0.5910921096801758,-0.09608602523803711,0.21027803421020508
1760898175969912300,0.289912353515625,-0.7735443115234375,-0.26852190494537354,0.15806591510772705
1760898175979599400,0.299599365234375,-1.7140140533447266,-0.00044167041778564453,0.1242971420288086
1760898175989286700,0.30928662109375,-1.906869888305664,0.5229144096374512,0.2851073741912842
1760898175998973700,0.3189736328125,-1.7837729454040527,0.7663137912750244,0.14493024349212646
1760898176008661000,0.328660888671875,-2.3495020866394043,0.8147649765014648,0.2521944046020508
1760898176018348300,0.338348388671875,-2.588822841644287,0.624213457107544,0.24180090427398682
1760898176028035300,0.348035400390625,-2.2895474433898926,0.3575252294540405,0.10642457008361816
1760898176037722600,0.35772265625,-1.7761750221252441,0.06668305397033691,-0.20619630813598633
1760898176047409700,0.36740966796875,-1.315485954284668,-0.30171096324920654,-0.5176330804824829
1760898176057097000,0.377096923828125,-0.9135146141052246,-0.6078783869743347,-0.6839651465415955
1760898176066784000,0.386783935546875,-0.3667573928833008,-0.746141791343689,-0.7568755745887756
1760898176076471300,0.39647119140625,1.6215238571166992,-0.6440484523773193,-0.6246243715286255
1760898176086158300,0.406158447265625,6.132455825805664,0.45750999450683594,0.9765943288803101
1760898176095845600,0.415845703125,5.919597625732422,2.043933868408203,4.181918144226074
1760898176105533000,0.425532958984375,4.726964950561523,2.5841925144195557,4.566280364990234
1760898176115220000,0.435219970703125,3.5449533462524414,2.196075439453125,2.7961182594299316
1760898176124907300,0.4449072265625,1.8089847564697266,2.3047502040863037,2.5140957832336426
1760898176134594300,0.45459423828125,0.34929752349853516,2.2496185302734375,2.0337955951690674
1760898176144281600,0.464281494140625,-1.84002685546875,1.768866777420044,1.7362489700317383
1760898176153968600,0.47396875,-2.9461002349853516,0.4224221706390381,1.5935816764831543
1760898176163656000,0.483656005859375,-2.1107583045959473,-0.8970164060592651,1.0780372619628906
1760898176173343200,0.49334326171875,-1.867964744567871,-1.1294182538986206,1.0060203075408936
1760898176183030300,0.5030302734375,-2.0477943420410156,-0.7161033153533936,1.1588776111602783
1760898176192717600,0.512717529296875,-1.301579475402832,-0.19861316680908203,1.3595645427703857
1760898176202404600,0.522404541015625,0.1810007095336914,0.17998194694519043,1.4338469505310059
1760898176212092000,0.532091796875,1.2155132293701172,0.49347829818725586,1.501112937927246
1760898176221779000,0.541779052734375,1.7703914642333984,1.0122287273406982,1.2471716403961182
1760898176231466200,0.55146630859375,2.0875349044799805,1.3417727947235107,0.7523336410522461
1760898176241153300,0.5611533203125,1.6394405364990234,1.246382474899292,0.6464431285858154
1760898176250840600,0.570840576171875,0.8897418975830078,0.31099367141723633,-0.34723401069641113
1760898176260527900,0.58052783203125,-0.48554134368896484,-0.4508073329925537,-1.6482692956924438
1760898176270215000,0.59021484375,-2.659245491027832,-1.5383507013320923,-2.137078285217285
1760898176279902200,0.599902099609375,-2.7500710487365723,-1.2380709648132324,-1.6686729192733765
1760898176289589200,0.60958935546875,-1.7366375923156738,-0.4323059320449829,-0.7542662620544434
1760898176299276500,0.619276611328125,-1.021773338317871,-0.339377760887146,-0.016148805618286133
1760898176308963800,0.6289638671875,-0.07509517669677734,-0.6354408264160156,0.24012017250061035
1760898176318651000,0.63865087890625,0.4096345901489258,-0.8278377056121826,0.21579527854919434
1760898176328338200,0.648338134765625,1.1227340698242188,-0.8234431743621826,0.27982044219970703
1760898176338025200,0.658025146484375,0.7911605834960938,-0.585342526435852,0.7395455837249756
1760898176347712500,0.66771240234375,0.3093719482421875,-0.20317387580871582,1.242208480834961
1760898176357399600,0.677399658203125,0.009972572326660156,0.18269944190979004,1.5822694301605225
1760898176367086800,0.6870869140625,-0.2016773223876953,0.29705286026000977,1.5842006206512451
1760898176376774100,0.696774169921875,-0.31832122802734375,0.09222817420959473,1.314739465713501
1760898176386461200,0.706461181640625,-0.5747518539428711,0.027890920639038086,1.0215826034545898
1760898176396148500,0.7161484375,-0.7273769378662109,0.0035817623138427734,0.7239575386047363
1760898176405835500,0.72583544921875,-0.9276905059814453,0.09254336357116699,0.6760451793670654
1760898176415522800,0.735522705078125,-1.037592887878418,0.45848822593688965,0.7331821918487549
1760898176425209900,0.7452099609375,-0.6495742797851562,0.5580248832702637,0.8572359085083008
1760898176434897200,0.754897216796875,-0.33962154388427734,0.5827808380126953,1.0622615814208984
1760898176444584400,0.76458447265625,-0.07992172241210938,0.18745851516723633,0.3587677478790283
1760898176454271500,0.774271484375,-0.3031282424926758,0.019130468368530273,-0.34459972381591797
1760898176463958800,0.783958740234375,-0.43401527404785156,0.06959748268127441,-1.1387124061584473
1760898176473645800,0.793645751953125,-0.6871538162231445,0.15295863151550293,-1.4952826499938965
1760898176483333000,0.8033330078125,-0.7203960418701172,0.12472414970397949,-1.8380320072174072
1760898176493020200,0.813020263671875,-0.3310985565185547,0.1462998390197754,-2.084527015686035
1760898176502707500,0.82270751953125,0.4353151321411133,-0.11862421035766602,-2.8376355171203613
1760898176512394800,0.832394775390625,0.6260385513305664,-0.025943756103515625,-2.979165554046631
1760898176522081800,0.842081787109375,1.1123628616333008,-0.3372659683227539,-3.2250161170959473
1760898176531769000,0.85176904296875,1.4512081146240234,-0.48009610176086426,-3.19577693939209
1760898176541456100,0.8614560546875,1.2891597747802734,-0.4438498020172119,-2.8520421981811523
1760898176551143400,0.871143310546875,-0.0779409408569336,-0.9666993618011475,-3.440889358520508
1760898176560830500,0.88083056640625,-2.418574810028076,-1.3901360034942627,-4.481732368469238
1760898176570517800,0.890517822265625,-2.9112277030944824,-2.422865629196167,-4.207380294799805
1760898176580205000,0.900205078125,-3.6490345001220703,-1.2430905103683472,-2.1981825828552246
1760898176589892000,0.90989208984375,-3.1427783966064453,-1.231643795967102,-1.2590044736862183
1760898176599579400,0.919579345703125,-2.545485019683838,-1.4057490825653076,-0.7036826610565186
1760898176609266400,0.929266357421875,-1.6915202140808105,-1.1507480144500732,-0.16221868991851807
1760898176618953700,0.93895361328125,-0.7967367172241211,-0.8661621809005737,0.29447782039642334
1760898176628641000,0.94864111328125,-0.10287761688232422,-0.2468167543411255,0.7021480798721313
1760898176648015400,0.968015380859375,0.5283441543579102,-0.3675389289855957,0.5758594274520874
1760898176657702400,0.977702392578125,0.5001258850097656,-0.6023199558258057,0.4035944938659668
1760898176667389700,0.9873896484375,0.012619972229003906,-0.10585713386535645,0.330558180809021
1760898176677076700,0.99707666015625,0.4482717514038086,0.17034697532653809,-0.2597731351852417
1760898176686764000,1.006763916015625,0.8660449981689453,-0.03512310981750488,-0.9288615584373474
1760898176696451300,1.016451416015625,2.256410598754883,-0.29024964570999146,-2.0801522731781006
1760898176706138400,1.026138427734375,1.2713556289672852,-0.40032464265823364,-1.1737966537475586
1760898176715825700,1.03582568359375,2.5616817474365234,-0.2568632960319519,0.5422518253326416
1760898176725512700,1.0455126953125,1.997314453125,-0.18898391723632812,1.4044688940048218
1760898176735200000,1.055199951171875,1.7072067260742188,-0.30664050579071045,-0.23032844066619873
1760898176744887000,1.064886962890625,1.9820880889892578,0.39955365657806396,-0.43440693616867065
1760898176754574300,1.07457421875,1.872344970703125,0.7771462202072144,-0.3798518776893616
1760898176764261600,1.08426171875,1.2551612854003906,0.4770851731300354,-0.7677229642868042
1760898176773948700,1.09394873046875,1.3005733489990234,0.3443995714187622,-1.1281479597091675
1760898176783636000,1.103635986328125,1.5292396545410156,0.3455657958984375,-1.3659731149673462
1760898176793323000,1.113322998046875,1.1475229263305664,0.1835789680480957,-1.489804983139038
1760898176803010300,1.12301025390625,1.0886383056640625,0.38271522521972656,-1.2265732288360596
1760898176812697300,1.132697265625,1.1015501022338867,0.5974258184432983,-0.6998090744018555
1760898176822384600,1.142384521484375,1.0989198684692383,0.30720698833465576,-0.6065675020217896
1760898176832072000,1.152072021484375,0.5741634368896484,0.061208248138427734,-0.43949949741363525
1760898176841759000,1.161759033203125,-0.7507953643798828,-0.23893284797668457,-0.4407505989074707
1760898176851446300,1.1714462890625,-1.6928901672363281,-0.4113941192626953,-0.47210705280303955
1760898176861133300,1.18113330078125,-2.241413116455078,-0.939730167388916,-0.28337299823760986
1760898176870820600,1.190820556640625,-2.1205644607543945,-1.010374665260315,0.17418217658996582
1760898176880507600,1.200507568359375,-1.9309043884277344,-0.7808764576911926,0.7909877300262451
1760898176890195000,1.21019482421875,-1.4374961853027344,-0.5742427706718445,1.2377551794052124
1760898176899882200,1.21988232421875,-1.1882925033569336,-0.5110876560211182,1.3048821687698364
1760898176909569300,1.2295693359375,-0.9808540344238281,-0.5525960922241211,1.500430941581726
1760898176919256600,1.239256591796875,-0.6232309341430664,-0.38566988706588745,1.0933434963226318
1760898176928943600,1.248943603515625,0.14971351623535156,0.04263448715209961,0.0975414514541626
1760898176938631000,1.258630859375,0.3950471878051758,0.0762718915939331,-0.22236871719360352
1760898176948318200,1.268318115234375,-0.3099384307861328,0.5112313032150269,0.0961160659790039
1760898176958005200,1.278005126953125,-1.167586326599121,0.4508591890335083,0.4361402988433838
1760898176967692500,1.287692626953125,-1.3185272216796875,0.05606424808502197,1.1746360063552856
1760898176977379600,1.297379638671875,-1.1459217071533203,-0.13666069507598877,1.6697226762771606
1760898176987067000,1.30706689453125,-0.6980361938476562,0.31962859630584717,1.904760718345642
1760898176996754200,1.316754150390625,-1.061558723449707,0.617781937122345,1.676906943321228
1760898177006441200,1.326441162109375,-1.448263168334961,0.6528835296630859,0.9544777870178223
1760898177016128500,1.33612841796875,-0.8221683502197266,0.6460146307945251,0.39685773849487305
1760898177025815600,1.345815673828125,0.470611572265625,0.2601153254508972,-0.04262816905975342
1760898177035502800,1.3555029296875,0.10148143768310547,-0.5658077001571655,-0.10043096542358398
1760898177045190000,1.36518994140625,0.950892448425293,-0.6848604679107666,-0.28959715366363525
1760898177054877200,1.374877197265625,0.617833137512207,0.16315388679504395,-0.5913485288619995
1760898177064564500,1.384564453125,0.9964284896850586,0.7363067865371704,-0.5715266466140747
1760898177074251500,1.39425146484375,0.7795095443725586,0.989194929599762,0.0012928247451782227
1760898177083938800,1.403938720703125,0.6598939895629883,0.9944745302200317,0.5551577806472778
1760898177093625900,1.4136259765625,0.7752323150634766,0.8968546986579895,0.6666078567504883
1760898177103313200,1.423313232421875,0.9106454849243164,0.7526147365570068,0.5614444017410278
1760898177113000400,1.43300048828125,0.6958017349243164,0.6558669805526733,0.46174943447113037
1760898177122687500,1.4426875,0.4274711608886719,0.41411155462265015,0.5837675333023071
1760898177132374800,1.452374755859375,0.07745361328125,0.29619300365448,0.6134601831436157
1760898177142061800,1.462061767578125,-0.23929595947265625,0.12726300954818726,0.3491475582122803
1760898177151749000,1.4717490234375,-0.2711610794067383,-0.08050531148910522,0.6254204511642456
1760898177161436200,1.481436279296875,0.28766536712646484,-0.4361777901649475,0.8096202611923218
1760898177171123500,1.49112353515625,0.3024272918701172,-0.23848098516464233,1.0878514051437378
1760898177180810800,1.500810791015625,0.41457653045654297,0.35725539922714233,1.1100469827651978
1760898177190497800,1.510497802734375,-0.26469993591308594,0.7778180241584778,1.1953409910202026
1760898177200185000,1.52018505859375,-0.8116626739501953,1.2879061698913574,1.3304086923599243
1760898177209872100,1.5298720703125,-0.6823272705078125,1.659633755683899,0.7821000814437866
1760898177219559400,1.539559326171875,-0.10628032684326172,0.9795290231704712,0.4043072462081909
1760898177229246500,1.54924658203125,-1.2737197875976562,0.9790990352630615,0.35774266719818115
1760898177238933800,1.558933837890625,-2.0879716873168945,1.2810044288635254,0.18334448337554932
1760898177248621000,1.56862109375,-2.2125773429870605,1.116639256477356,0.30865538120269775
1760898177258308000,1.57830810546875,-1.763169765472412,0.7705318927764893,0.8759188652038574
1760898177267995400,1.587995361328125,-1.6294522285461426,0.6175581216812134,1.5955525636672974
1760898177277682400,1.597682373046875,-1.531463623046875,0.692505955696106,2.1577863693237305
1760898177287369700,1.60736962890625,-1.653862476348877,1.0191621780395508,2.6234259605407715
1760898177297056800,1.617056884765625,-1.8963971138000488,1.223421335220337,2.941094398498535
1760898177306744000,1.626744140625,-2.262953281402588,1.1852377653121948,3.0167603492736816
1760898177316431400,1.636431396484375,-2.5721912384033203,1.3867084980010986,3.139798164367676
1760898177326118400,1.646118408203125,-2.9092116355895996,0.7742319107055664,3.300142526626587
1760898177335805700,1.6558056640625,-2.990748882293701,0.3564169406890869,3.245511531829834
1760898177345492700,1.66549267578125,-3.010558605194092,0.29363834857940674,3.206080675125122
1760898177355180000,1.675179931640625,-2.9050965309143066,0.37439095973968506,3.1432549953460693
1760898177364867300,1.684867431640625,-2.688760757446289,0.5885128974914551,3.1329667568206787
1760898177374554400,1.694554443359375,-2.691275119781494,0.7501691579818726,3.197373628616333
1760898177384241700,1.70424169921875,-2.687747001647949,0.6030170917510986,3.1356894969940186
1760898177393928700,1.7139287109375,-2.793771743774414,0.5117459297180176,3.0487046241760254
1760898177403616000,1.723615966796875,-2.834441661834717,0.49349749088287354,2.7961106300354004
1760898177413303000,1.733302978515625,-2.4681038856506348,0.5423065423965454,2.4414052963256836
1760898177422990300,1.742990234375,-1.9405155181884766,0.5629392862319946,2.071132183074951
1760898177432677600,1.752677734375,-1.5813250541687012,0.561177134513855,1.8462061882019043
1760898177442364700,1.76236474609375,-1.1606922149658203,0.3048851490020752,1.722754955291748
1760898177452052000,1.772052001953125,-1.2954292297363281,-0.32004475593566895,1.4193243980407715
1760898177461739000,1.781739013671875,-1.5781159400939941,-0.9502031803131104,1.2073216438293457
1760898177471426300,1.79142626953125,-1.6768369674682617,-1.3624000549316406,1.071746826171875
1760898177481113300,1.80111328125,-1.81264066696167,-1.449155569076538,1.2021327018737793
1760898177490800600,1.810800537109375,-1.730112075805664,-1.3743271827697754,1.5843663215637207
1760898177500488000,1.820488037109375,-1.4262313842773438,-1.3238502740859985,1.6932921409606934
1760898177510175000,1.830175048828125,-0.8238954544067383,-1.2889833450317383,1.6355605125427246
1760898177519862300,1.8398623046875,-0.296018123626709,-0.9242954254150391,2.186337947845459
1760898177529549300,1.84954931640625,0.31574010848999023,-0.3899714946746826,2.908352851867676
1760898177539236600,1.859236572265625,1.3756155967712402,-0.13804101943969727,3.5557003021240234
1760898177548923600,1.868923583984375,2.4685230255126953,-0.6556613445281982,4.276091575622559
1760898177558611000,1.87861083984375,3.139793872833252,-1.3484492301940918,4.674619674682617
1760898177568298200,1.88829833984375,3.733700752258301,-2.204580307006836,4.76039981842041
1760898177577985300,1.8979853515625,4.137158393859863,-3.254243850708008,4.523764610290527
1760898177587672600,1.907672607421875,4.292638778686523,-4.062954902648926,4.262467861175537
1760898177597359600,1.917359619140625,4.046403408050537,-4.4709086418151855,4.429928302764893
1760898177607047000,1.927046875,3.617884635925293,-5.034149646759033,4.8477702140808105
1760898177616734000,1.93673388671875,3.302779197692871,-5.77023983001709,5.485958576202393
1760898177626421200,1.946421142578125,2.8239502906799316,-6.338992118835449,5.724098205566406
1760898177636108500,1.956108642578125,3.9473447799682617,-7.075913429260254,5.80924129486084
1760898177655483000,1.97548291015625,3.8193960189819336,-6.972683906555176,4.7751898765563965
1760898177665170000,1.985169921875,5.337800979614258,-7.378052711486816,4.322591781616211
1760898177674857200,1.994857177734375,4.893556118011475,-7.560206890106201,3.9798240661621094
1760898177684544500,2.00454443359375,4.511038780212402,-8.135351181030273,2.90170955657959
1760898177694231600,2.0142314453125,4.6346940994262695,-8.626363754272461,2.105422019958496
1760898177703918800,2.0239189453125,4.004884719848633,-7.90866756439209,1.65828275680542
1760898177713606000,2.03360595703125,2.569305658340454,-7.0851640701293945,1.2206730842590332
1760898177723293200,2.043293212890625,2.529654026031494,-6.301218509674072,1.127549648284912
1760898177732980200,2.052980224609375,2.362161636352539,-4.898998260498047,0.6136202812194824
1760898177742667500,2.06266748046875,1.3991141319274902,-4.643587589263916,-0.10820388793945312
1760898177752354800,2.072354736328125,2.6633474826812744,-4.884801864624023,0.14233016967773438
1760898177771729200,2.091729248046875,3.5821940898895264,-3.4228005409240723,0.03850841522216797
1760898177781416200,2.101416259765625,3.6186680793762207,-2.8258371353149414,0.1826953887939453
1760898177791103500,2.111103515625,3.311823606491089,-1.9059193134307861,0.12469959259033203
1760898177800790500,2.12079052734375,2.911311626434326,-0.9628961086273193,-0.29915332794189453
1760898177810477800,2.130477783203125,1.7857694625854492,-0.7088851928710938,-0.7707867622375488
1760898177820165000,2.1401650390625,0.9344766139984131,-0.7585954666137695,-1.1677908897399902
1760898177829852200,2.14985205078125,0.905247688293457,-0.3239717483520508,-1.3791422843933105
1760898177839539500,2.15953955078125,1.0801966190338135,0.6579914093017578,-1.321794033050537
1760898177849226500,2.1692265625,0.8898494243621826,1.6889839172363281,-0.9039316177368164
1760898177858913800,2.178913818359375,0.7917952537536621,2.871987819671631,-0.10513687133789062
1760898177868600800,2.188600830078125,0.3698880672454834,3.155104160308838,0.2676048278808594
1760898177878288100,2.1982880859375,-0.6320717334747314,2.0189828872680664,0.14155292510986328
1760898177887975400,2.207975341796875,-0.4402015209197998,1.1383929252624512,0.12098217010498047
1760898177897662500,2.217662353515625,0.13814997673034668,0.6450490951538086,-0.05866718292236328
1760898177907349800,2.227349853515625,0.9406685829162598,0.5749907493591309,0.17526817321777344
1760898177917036800,2.237036865234375,1.301419734954834,1.0167038440704346,0.6921882629394531
1760898177926724000,2.24672412109375,1.1623859405517578,1.661179542541504,0.5477819442749023
1760898177936411100,2.2564111328125,1.1472067832946777,1.6345667839050293,0.22765254974365234
1760898177946098400,2.266098388671875,0.30829882621765137,1.449141502380371,-0.19177818298339844
1760898177955785700,2.27578564453125,0.07022786140441895,1.5913662910461426,-0.6998262405395508
1760898177965472800,2.28547265625,-0.20296931266784668,1.865983486175537,-1.1188888549804688
1760898177975160000,2.29516015625,-0.7939894199371338,1.5500092506408691,-1.0025534629821777
1760898177984847000,2.30484716796875,-1.569438099861145,1.3357844352722168,-0.42786312103271484
1760898177994534400,2.314534423828125,-1.5210216045379639,0.8933658599853516,0.3162212371826172
1760898178004221700,2.3242216796875,-2.3307993412017822,-0.007803916931152344,0.7304744720458984
1760898178013908700,2.33390869140625,-3.1335504055023193,-0.1894063949584961,0.39064502716064453
1760898178023596000,2.343595947265625,-2.86674427986145,0.09223413467407227,0.16484642028808594
1760898178033283000,2.353282958984375,-2.6645469665527344,0.13886785507202148,-0.10503959655761719
1760898178042970400,2.362970458984375,-2.2633273601531982,-0.0536651611328125,-0.2524690628051758
1760898178052657400,2.372657470703125,-1.9904454946517944,-0.011812686920166016,-0.09761333465576172
1760898178062344700,2.3823447265625,-2.330460786819458,0.04331350326538086,0.2972068786621094
1760898178072032000,2.392031982421875,-2.741312026977539,0.07376527786254883,0.2772207260131836
1760898178081719000,2.401718994140625,-2.2949206829071045,-0.019028663635253906,0.19777965545654297
1760898178091406300,2.41140625,-1.7513954639434814,-0.6706204414367676,0.4151163101196289
1760898178101093400,2.42109326171875,-1.4975407123565674,-1.1945853233337402,0.643031120300293
1760898178110780700,2.43078076171875,-0.6670293807983398,-1.8867688179016113,0.7316975593566895
1760898178120467700,2.4404677734375,0.44579505920410156,-1.6082186698913574,1.3144245147705078
1760898178130155000,2.450155029296875,1.233874797821045,-0.6337490081787109,2.1032252311706543
1760898178139842000,2.459842041015625,1.428483486175537,0.202972412109375,2.123262882232666
1760898178149529300,2.469529296875,1.7490837574005127,0.7041206359863281,1.858001708984375
1760898178159216600,2.479216552734375,1.6499176025390625,1.1030073165893555,0.8826498985290527
1760898178168903700,2.488903564453125,1.7546508312225342,1.2182693481445312,0.34269285202026367
1760898178178591000,2.498591064453125,1.78519868850708,0.9877233505249023,0.3773937225341797
1760898178188278000,2.508278076171875,1.6266441345214844,0.7446556091308594,0.6161613464355469
1760898178197965300,2.51796533203125,1.0096819400787354,0.47526073455810547,0.9544682502746582
1760898178207652400,2.52765234375,0.05538296699523926,0.19749879837036133,0.7107429504394531
1760898178217339600,2.537339599609375,-0.44196653366088867,-0.081878662109375,0.5553736686706543
1760898178227027000,2.54702685546875,-0.4927588701248169,-0.3968667984008789,0.6485204696655273
1760898178236714000,2.5567138671875,-0.9251346588134766,-0.39312267303466797,1.1039342880249023
1760898178246401300,2.5664013671875,-1.2364107370376587,-0.2282109260559082,1.7456588745117188
1760898178256088300,2.57608837890625,-0.8108054399490356,-0.5838503837585449,1.4516205787658691
1760898178265775600,2.585775634765625,0.6295406818389893,-1.6061310768127441,0.1582498550415039
1760898178275462700,2.595462646484375,2.1654610633850098,-1.963606357574463,-0.6088767051696777
1760898178285150000,2.60514990234375,3.3720285892486572,-1.6525750160217285,0.2617368698120117
1760898178294837200,2.614837158203125,3.7980751991271973,-1.1182594299316406,1.687086582183838
1760898178304524300,2.624524169921875,3.2967875003814697,-0.8414802551269531,1.9023857116699219
1760898178314211600,2.634211669921875,3.0011096000671387,-1.2515015602111816,1.518845558166504
1760898178323898600,2.643898681640625,0.8727426528930664,-1.5976510047912598,0.03723573684692383
1760898178333586000,2.6535859375,-1.6946320533752441,-1.9968962669372559,-4.241860866546631
1760898178343273000,2.66327294921875,-2.2343978881835938,-2.103365898132324,-5.9013872146606445
1760898178352960300,2.672960205078125,-0.4463917016983032,-1.833737850189209,-3.766023874282837
1760898178362647600,2.6826474609375,1.028334140777588,-1.6527385711669922,-1.4627788066864014
1760898178372334600,2.69233447265625,0.8615708351135254,-1.6838798522949219,-0.5548121929168701
1760898178382022000,2.70202197265625,-1.2826294898986816,-1.6550159454345703,-0.7769408226013184
1760898178391709000,2.711708984375,-1.2621574401855469,-1.7114319801330566,-0.763310432434082
1760898178401396200,2.721396240234375,-0.13836300373077393,-1.553818702697754,1.243253231048584
1760898178411083500,2.73108349609375,-1.5761362314224243,-1.4672751426696777,1.5292589664459229
1760898178420770600,2.7407705078125,-3.096012592315674,-1.2090401649475098,1.653029203414917
1760898178430457900,2.750457763671875,-2.2581863403320312,-1.1152381896972656,2.3280513286590576
1760898178440145000,2.760144775390625,-1.234706163406372,-1.2871589660644531,3.900881767272949
1760898178449832200,2.769832275390625,-1.087041974067688,-1.909886360168457,3.447535753250122
1760898178459519200,2.779519287109375,0.39525306224823,-1.9786839485168457,2.3473899364471436
1760898178469206500,2.78920654296875,0.3979576826095581,-2.662903308868408,0.21698260307312012
1760898178478893800,2.798893798828125,2.72729229927063,-3.212937831878662,-1.146700382232666
1760898178488580900,2.808580810546875,2.946235179901123,-3.2422609329223633,-0.9228257536888123
1760898178498268200,2.81826806640625,1.9461220502853394,-3.1996307373046875,-0.6246405243873596
1760898178507955200,2.827955078125,1.8256239891052246,-2.554067611694336,-0.16437208652496338
1760898178517642500,2.837642578125,1.3866220712661743,-1.9702329635620117,0.010698914527893066
1760898178527329500,2.84732958984375,1.0612138509750366,-1.2926158905029297,-0.021487295627593994
1760898178537016800,2.857016845703125,-0.04328572750091553,-1.5677776336669922,-1.3531835079193115
1760898178546704100,2.8667041015625,-0.8902717232704163,-1.3150453567504883,-2.681091070175171
1760898178556391200,2.87639111328125,-0.22043120861053467,0.6579036712646484,-1.8789012432098389
1760898178566078500,2.886078369140625,0.5708838701248169,9.023741722106934,3.2291274070739746
1760898178575765500,2.895765625,0.5242553949356079,15.431402206420898,6.9107465744018555
1760898178585452800,2.905452880859375,-0.7937438488006592,11.130859375,4.833302021026611
1760898178595139800,2.915139892578125,-2.4502885341644287,3.4188127517700195,1.676426887512207
1760898178604827100,2.9248271484375,-3.3385372161865234,-1.5225400924682617,-0.15499019622802734
1760898178614514400,2.934514404296875,-3.4372477531433105,-3.8293886184692383,-1.1552131175994873
1760898178624201500,2.944201416015625,-2.492739677429199,-3.954233169555664,-0.8423564434051514
1760898178633888800,2.953888671875,-1.0143903493881226,-2.6166787147521973,-0.31698155403137207
1760898178643575800,2.963575927734375,-0.11116719245910645,-1.109898567199707,-0.15685415267944336
1760898178653263000,2.97326318359375,0.217118501663208,0.18693923950195312,-0.7993166446685791
1760898178662950400,2.982950439453125,0.20660197734832764,1.0906810760498047,-1.7298038005828857
1760898178672637400,2.992637451171875,0.09199953079223633,1.4236717224121094,-2.5780115127563477
1760898178682324700,3.00232470703125,0.16166889667510986,1.0948143005371094,-3.040520191192627
1760898178692011800,3.01201171875,0.2071477174758911,0.6063032150268555,-3.475761651992798
1760898178701699000,3.021698974609375,0.3576861619949341,-1.0058388710021973,-9.091662406921387
1760898178711386000,3.03138623046875,-0.05210113525390625,-1.8368754386901855,-12.256248474121094
1760898178721073400,3.041073486328125,-0.02913486957550049,-0.5546150207519531,-4.189949989318848
1760898178730760700,3.0507607421875,-0.30515652894973755,-0.1070241928100586,0.9750714302062988
1760898178740447700,3.06044775390625,-0.46374887228012085,-0.46138954162597656,1.8360466957092285
1760898178750135000,3.070135009765625,-0.5869405269622803,-0.3794212341308594,1.0727827548980713
1760898178759822000,3.079822021484375,-0.8122996091842651,-0.5221319198608398,-0.3760833740234375
1760898178769509400,3.08950927734375,-0.5722627639770508,-0.3412618637084961,-0.21188020706176758
1760898178779196400,3.099196533203125,-0.12313532829284668,-0.08941268920898438,0.3238813877105713
1760898178788883700,3.1088837890625,0.2316126823425293,0.2864665985107422,0.6222801208496094
1760898178798571000,3.118571044921875,0.48459506034851074,0.5139408111572266,0.689173698425293
1760898178808258000,3.128258056640625,0.6223695278167725,0.3733053207397461,0.5426895618438721
1760898178817945300,3.1379453125,0.5049179792404175,0.156219482421875,0.4582035541534424
1760898178827632400,3.14763232421875,0.17690515518188477,0.1402416229248047,0.4977726936340332
1760898178837319700,3.157319580078125,-0.11574280261993408,0.09113693237304688,0.41235828399658203
1760898178847006700,3.1670068359375,-0.3069664239883423,-0.14397811889648438,0.17743420600891113
1760898178856694000,3.176694091796875,-0.27990007400512695,-0.4077587127685547,-0.05456852912902832
1760898178866381300,3.18638134765625,-0.03654038906097412,-0.5955181121826172,-0.33099913597106934
1760898178876068400,3.196068359375,-0.01068580150604248,-0.48682117462158203,-0.20464611053466797
1760898178885755600,3.205755615234375,0.12921321392059326,-0.23480796813964844,-0.171142578125
1760898178895442700,3.215442626953125,0.20116591453552246,-0.2648487091064453,-0.2932286262512207
1760898178905130000,3.2251298828125,0.006735801696777344,-0.17032814025878906,-0.26562023162841797
1760898178914817000,3.234817138671875,-0.1793811321258545,-0.15180110931396484,-0.18472743034362793
1760898178924504300,3.24450439453125,-0.262955904006958,-0.13745880126953125,-0.07970619201660156
1760898178934191600,3.254191650390625,-0.23879194259643555,-0.0844888687133789,-0.007937192916870117
1760898178943878700,3.263878662109375,-0.18734705448150635,0.03061389923095703,0.08771586418151855
1760898178953566000,3.27356591796875,-0.06475591659545898,-0.01686573028564453,0.14953351020812988
1760898178963253000,3.2832529296875,0.16336166858673096,0.0743722915649414,0.24066901206970215
1760898178972940300,3.292940185546875,0.1726086139678955,0.25649452209472656,0.5145626068115234
1760898178982627600,3.302627685546875,0.09940266609191895,0.2537965774536133,0.20647096633911133
1760898178992314600,3.312314697265625,0.7778712511062622,0.25544261932373047,3.2948832511901855
1760898179002002000,3.322001953125,-0.3873000741004944,-0.3952484130859375,-0.0754845142364502
1760898179011689000,3.33168896484375,-0.31171393394470215,0.29303646087646484,-0.27600884437561035
1760898179021376300,3.341376220703125,0.010246753692626953,0.5709648132324219,-0.3574256896972656
1760898179031063600,3.3510634765625,0.03093123435974121,0.4164590835571289,-0.6681883335113525
1760898179040750600,3.36075048828125,-0.3311513066291809,0.3811683654785156,-0.9002068042755127
1760898179050438000,3.37043798828125,-0.32527536153793335,0.08906745910644531,-1.0361502170562744
1760898179060125000,3.380125,0.4058060646057129,-0.41604042053222656,-0.7832939624786377
1760898179069812200,3.389812255859375,-0.05235767364501953,-0.2217731475830078,-1.0112357139587402
1760898179079499300,3.399499267578125,0.6869263648986816,-0.09772205352783203,-0.593303918838501
1760898179089186600,3.4091865234375,-0.09587883949279785,0.06495189666748047,-1.2266685962677002
1760898179098873900,3.418873779296875,-0.852046012878418,0.16571331024169922,-1.7228612899780273
1760898179108561000,3.428560791015625,-0.3023601174354553,0.2391223907470703,-1.6727063655853271
1760898179118248200,3.438248291015625,-0.2375013828277588,0.5490322113037109,-1.493722677230835
1760898179127935200,3.447935302734375,0.3007042407989502,-0.12160682678222656,-0.6964190006256104
1760898179137622500,3.45762255859375,0.5736725330352783,-0.23903369903564453,0.07216382026672363
1760898179147309800,3.467309814453125,0.15964913368225098,-0.135772705078125,-0.342775821685791
1760898179156996900,3.476996826171875,0.0008931159973144531,-0.2378101348876953,-0.3742396831512451
1760898179166684200,3.48668408203125,0.11914443969726562,-0.35941314697265625,-0.6160283088684082
1760898179176371200,3.49637109375,0.20091795921325684,-0.4059162139892578,-0.748852014541626
1760898179186058500,3.50605859375,0.2280285358428955,-0.5737676620483398,-0.8980915546417236
1760898179195745800,3.515745849609375,0.28173935413360596,-0.714512825012207,-0.7482693195343018
1760898179205432800,3.525432861328125,0.20151376724243164,-0.7463798522949219,-0.3807389736175537
1760898179215120100,3.5351201171875,-0.05972158908843994,-0.6926193237304688,-0.14395761489868164
1760898179224807200,3.54480712890625,-0.012852072715759277,-0.39969730377197266,0.2740914821624756
1760898179234494500,3.554494384765625,-0.40344715118408203,-0.22591590881347656,0.18453574180603027
1760898179244181500,3.564181396484375,-0.8919683694839478,-0.16590118408203125,0.24773859977722168
1760898179253868800,3.573868896484375,-1.0414878129959106,-0.4693260192871094,-0.14446353912353516
1760898179263556000,3.58355615234375,-0.8816622495651245,-0.8735256195068359,-0.7219326496124268
1760898179273243100,3.5932431640625,-0.4738609790802002,-0.7268610000610352,0.3464474678039551
1760898179282930400,3.602930419921875,-0.0234525203704834,-0.7235202789306641,0.42508840560913086
1760898179292617500,3.612617431640625,0.7091035842895508,-0.4963712692260742,0.8831207752227783
1760898179302304800,3.6223046875,1.2810418605804443,-0.22358417510986328,0.9843165874481201
1760898179311992000,3.631991943359375,1.2432156801223755,0.07469558715820312,0.6144158840179443
1760898179321679000,3.64167919921875,0.6015335321426392,0.16940689086914062,0.3350057601928711
1760898179331366400,3.651366455078125,-0.2225264310836792,0.09990215301513672,0.27460646629333496
1760898179341053400,3.661053466796875,-0.6331431269645691,0.029786109924316406,0.2208569049835205
1760898179350740700,3.67074072265625,-0.607726514339447,-0.0450897216796875,0.1445293426513672
1760898179360428000,3.680427978515625,-0.22247564792633057,-0.1866016387939453,0.1354842185974121
1760898179370115000,3.690114990234375,0.22467052936553955,-0.4187030792236328,0.12917304039001465
1760898179379802400,3.69980224609375,0.5899524688720703,-0.5651731491088867,0.11165070533752441
1760898179389489400,3.709489501953125,0.7263259887695312,-0.7748384475708008,-0.10906648635864258
1760898179399176700,3.7191767578125,0.6748038530349731,-0.8612937927246094,-0.19909429550170898
1760898179408864000,3.728864013671875,0.5562692880630493,-1.0197415351867676,-0.2920517921447754
1760898179418551000,3.738551025390625,0.41477346420288086,-1.0153894424438477,-0.3447835445404053
1760898179428238300,3.74823828125,0.22748982906341553,-0.8051843643188477,-0.5627481937408447
1760898179437925400,3.75792529296875,0.12501132488250732,-0.4701271057128906,-0.5345194339752197
1760898179447612700,3.76761279296875,0.06724345684051514,-0.2775840759277344,-0.5041112899780273
1760898179457300000,3.777300048828125,0.1499561071395874,-0.21824264526367188,-0.3390977382659912
1760898179466987000,3.786987060546875,1.3722400665283203,-1.919306755065918,-0.32833075523376465
1760898179476674300,3.79667431640625,5.174311637878418,-2.1849961280822754,6.386436462402344
1760898179486361600,3.806361572265625,-0.9373180866241455,-1.9628934860229492,0.1209402084350586
1760898179496048600,3.816048583984375,-1.824328899383545,0.07935810089111328,-1.35249662399292
1760898179505736000,3.82573583984375,-0.30483824014663696,1.9397993087768555,-0.3806161880493164
1760898179515423000,3.835423095703125,0.1580703854560852,2.241358757019043,-0.5988340377807617
1760898179525110300,3.8451103515625,0.12024039030075073,1.3859453201293945,-0.546079158782959
1760898179534797300,3.85479736328125,0.3325936198234558,0.2054910659790039,-0.6031298637390137
1760898179544484600,3.864484619140625,0.39077049493789673,-0.37227344512939453,-0.8483386039733887
1760898179554172000,3.874171875,0.4333376884460449,-0.41227245330810547,-0.5665092468261719
1760898179563859000,3.88385888671875,0.5043407678604126,-0.18087482452392578,-0.6121535301208496
1760898179573546200,3.893546142578125,0.5926733016967773,-0.14048385620117188,-0.7137339115142822
1760898179583233300,3.9032333984375,0.4532751441001892,-0.1323375701904297,-0.6071062088012695
1760898179592920600,3.912920654296875,0.26501405239105225,-0.41956615447998047,-0.6910066604614258
1760898179602607900,3.92260791015625,0.17882192134857178,-0.5811834335327148,-0.5781209468841553
1760898179612295000,3.932294921875,0.06398642063140869,-0.2774057388305664,-0.1946580410003662
1760898179621982200,3.941982177734375,-0.14721229672431946,0.23317527770996094,-0.022562026977539062
1760898179631669500,3.95166943359375,-0.2875142991542816,0.31882476806640625,-0.10684847831726074
1760898179641356500,3.9613564453125,-0.38133859634399414,0.4282264709472656,-0.20133328437805176
1760898179651043800,3.9710439453125,-0.7231227159500122,0.4415473937988281,-0.08802485466003418
1760898179660731000,3.98073095703125,-0.9893379211425781,0.35836124420166016,-0.06552457809448242
1760898179670418200,3.990418212890625,-1.0078448057174683,0.26381969451904297,-0.3082404136657715
1760898179680105200,4.000105224609375,-1.022028923034668,-0.009184837341308594,-0.2862687110900879
1760898179689792500,4.00979248046875,-0.7797326445579529,-0.164337158203125,-0.4395730495452881
1760898179699479800,4.019479736328125,-0.055085718631744385,-0.0824899673461914,0.0012159347534179688
1760898179709166800,4.029166748046875,1.7244923114776611,0.20179462432861328,3.935938596725464
1760898179718854100,4.038854248046875,1.7987844944000244,-0.17444705963134766,2.918731451034546
1760898179728541400,4.04854150390625,1.7661086320877075,-0.754486083984375,1.0227892398834229
1760898179738228500,4.058228515625,1.8797342777252197,-1.3850531578063965,-1.9178519248962402
1760898179747915800,4.067915771484375,1.8118259906768799,-0.9202413558959961,-3.438300371170044
1760898179757602800,4.077602783203125,1.5848782062530518,0.3217592239379883,-0.9046454429626465
1760898179767290000,4.0872900390625,0.9928160309791565,0.6702842712402344,-0.4297821521759033
1760898179776977400,4.096977294921875,0.06114161014556885,0.34551048278808594,-0.8216993808746338
1760898179786664400,4.10666455078125,-0.6801741123199463,-0.054587364196777344,-0.767554759979248
1760898179796351700,4.116351806640625,-0.8187269568443298,-0.3192596435546875,-0.4959299564361572
1760898179806039000,4.1260390625,-0.461518794298172,-0.43926525115966797,-0.28801584243774414
1760898179815726000,4.13572607421875,0.49596965312957764,-0.42995548248291016,-0.2728567123413086
1760898179825413400,4.145413330078125,1.0072020292282104,-0.4929485321044922,-0.22710013389587402
1760898179835100400,4.155100341796875,0.7579050660133362,-0.27008056640625,-0.4988217353820801
1760898179844787700,4.16478759765625,0.9016496539115906,-0.07729911804199219,-0.523371696472168
1760898179854475000,4.17447509765625,0.6065853238105774,-0.21022701263427734,-0.8391804695129395
1760898179864162000,4.184162109375,0.7375708818435669,0.13103103637695312,-0.23167085647583008
1760898179873849300,4.193849365234375,-0.030690491199493408,-0.03542804718017578,-0.7533659934997559
1760898179883536600,4.20353662109375,-0.6536657810211182,-0.31901073455810547,-0.9672756195068359
1760898179893223700,4.2132236328125,-1.4680190086364746,-1.176753044128418,-0.48148226737976074
1760898179902911000,4.222910888671875,-1.06137216091156,0.06120872497558594,1.2661364078521729
1760898179912598000,4.232597900390625,-0.08123651146888733,0.6864185333251953,1.0290002822875977
1760898179922285300,4.242285400390625,0.06243571639060974,0.2299060821533203,0.32685279846191406
1760898179941659600,4.26165966796875,0.4015100300312042,0.37604618072509766,0.5752785205841064
1760898179951347000,4.271346923828125,0.34156426787376404,0.3345651626586914,0.724703311920166
1760898179961034200,4.2810341796875,0.3618844449520111,0.12167549133300781,0.5294473171234131
1760898179970721300,4.29072119140625,0.2846686840057373,-0.12384414672851562,0.41987109184265137
1760898179980408600,4.30040869140625,-0.003727748990058899,-0.2825145721435547,0.33414602279663086
1760898179990095600,4.310095703125,-0.27097710967063904,-0.33545970916748047,0.25346899032592773
1760898179999783000,4.319782958984375,-0.5037508010864258,-0.46387672424316406,0.33723974227905273
1760898180009470200,4.32947021484375,-0.4294748306274414,-0.4676332473754883,0.020310401916503906
1760898180019157200,4.3391572265625,-0.45716798305511475,-0.6096897125244141,-0.13816380500793457
1760898180028844500,4.348844482421875,-0.28547337651252747,-0.6173973083496094,-0.061832427978515625
1760898180038531600,4.358531494140625,-0.14619091153144836,-0.5766448974609375,0.17795372009277344
1760898180048219000,4.368218994140625,-0.35474181175231934,-0.5690708160400391,0.05417513847351074
1760898180057906200,4.37790625,-0.3738134503364563,-0.37479686737060547,0.32271289825439453
1760898180067593200,4.38759326171875,-0.1559334695339203,-0.3091278076171875,0.6015994548797607
1760898180077280500,4.397280517578125,-0.056349724531173706,-0.3196277618408203,0.7225772142410278
1760898180086967800,4.4069677734375,-0.38216328620910645,-0.3683042526245117,0.7756887674331665
1760898180096654800,4.41665478515625,-0.27451813220977783,-0.325592041015625,1.116332769393921
1760898180106342100,4.426342041015625,-0.2483721375465393,-0.2301168441772461,1.0603371858596802
1760898180116029400,4.436029541015625,-0.3757422864437103,-0.11101818084716797,1.0418287515640259
1760898180125716500,4.445716552734375,-0.34177306294441223,0.0030651092529296875,1.1326603889465332
1760898180135403800,4.45540380859375,-0.3199974298477173,0.04985523223876953,1.0550472736358643
1760898180145090800,4.4650908203125,-0.22052618861198425,0.24906444549560547,1.2677404880523682
1760898180154778000,4.474778076171875,-0.25493454933166504,0.34253501892089844,1.1211470365524292
1760898180164465400,4.48446533203125,0.017443150281906128,0.46474456787109375,1.2722164392471313
1760898180174152400,4.49415234375,-0.09321200847625732,0.4095439910888672,0.6577519178390503
1760898180183839700,4.50383984375,0.011945188045501709,0.5833940505981445,0.4930151700973511
1760898180193527000,4.513527099609375,-0.21571463346481323,0.34615612030029297,0.1088716983795166
1760898180203214000,4.523214111328125,-0.19863170385360718,0.33942699432373047,0.0194854736328125
1760898180212901400,4.5329013671875,-0.1315569281578064,0.23835086822509766,-0.08985042572021484
1760898180222588700,4.542588623046875,-0.15966099500656128,-0.10074138641357422,-0.6224691867828369
1760898180232275700,4.552275634765625,-0.06493723392486572,-0.2145071029663086,-0.6280977725982666
1760898180241963000,4.561962890625,0.11256754398345947,-0.27980518341064453,-0.6551263332366943
1760898180251650000,4.571650146484375,0.17840531468391418,0.11882495880126953,-0.12978386878967285
1760898180261337300,4.58133740234375,0.7298884391784668,0.15893268585205078,-0.16805768013000488
1760898180271024600,4.591024658203125,0.6287425756454468,0.0800018310546875,0.15259075164794922
1760898180280711700,4.600711669921875,0.15916460752487183,0.11583805084228516,0.35802483558654785
1760898180290399000,4.61039892578125,-0.19774597883224487,0.23721885681152344,0.43828821182250977
1760898180300086300,4.620086181640625,-0.33118778467178345,0.2145557403564453,0.4017946720123291
1760898180309773300,4.629773193359375,-0.3745296001434326,0.05391502380371094,0.009330272674560547
1760898180319460600,4.639460693359375,-0.4241052269935608,0.15726089477539062,1.2364399433135986
1760898180329147600,4.649147705078125,-0.34095436334609985,-0.03141212463378906,0.7730522155761719
1760898180338835000,4.6588349609375,-0.27681034803390503,-0.08191680908203125,0.8131961822509766
1760898180348522200,4.668522216796875,-0.33288949728012085,0.11552143096923828,0.8275364637374878
1760898180358209300,4.678209228515625,-0.39064329862594604,0.17867565155029297,0.78440260887146
1760898180367896600,4.687896484375,-0.2388768196105957,0.1415538787841797,0.6752210855484009
1760898180377583900,4.697583984375,-0.08629071712493896,0.0045261383056640625,0.5239665508270264
1760898180387271000,4.70727099609375,-0.03752380609512329,-0.07939338684082031,0.4690514802932739
1760898180396958200,4.716958251953125,-0.11260616779327393,-0.043448448181152344,0.4011993408203125
1760898180406645500,4.7266455078125,-0.12114334106445312,0.01671600341796875,0.4455389976501465
1760898180416332500,4.73633251953125,-0.07266038656234741,0.034145355224609375,0.39140987396240234
1760898180426019800,4.746019775390625,-0.010261476039886475,0.10427093505859375,0.41021180152893066
1760898180435707100,4.75570703125,-0.01031792163848877,0.2220315933227539,0.48665153980255127
1760898180445394200,4.765394287109375,-0.05408596992492676,0.2440013885498047,0.6059865951538086
1760898180455081500,4.77508154296875,-0.13802260160446167,0.21344566345214844,0.7021496295928955
1760898180464768800,4.784768798828125,-0.008801698684692383,0.19726848602294922,0.712760329246521
1760898180474455800,4.794455810546875,0.20039480924606323,0.052097320556640625,0.44127345085144043
1760898180484143000,4.80414306640625,0.4184608459472656,0.016966819763183594,0.18422210216522217
1760898180493830400,4.813830322265625,0.4734216332435608,0.07718658447265625,-0.1161731481552124
1760898180503517400,4.823517333984375,0.3650095760822296,0.1493520736694336,-0.3395676612854004
1760898180513204700,4.833204833984375,0.29633426666259766,0.11225605010986328,-0.48316335678100586
1760898180522891800,4.842891845703125,0.28608080744743347,0.0055294036865234375,-0.6229391098022461
1760898180532579000,4.8525791015625,0.26705068349838257,-0.13669776916503906,-0.7115840911865234
1760898180542266400,4.862266357421875,0.1820107102394104,-0.17737960815429688,-0.6696802377700806
1760898180551953700,4.87195361328125,0.03579992055892944,-0.09018135070800781,-0.5377680063247681
1760898180561640700,4.881640625,-0.01916414499282837,-0.04214000701904297,-0.346935510635376
1760898180571328000,4.891327880859375,-0.12103849649429321,0.0001773834228515625,-0.16010189056396484
1760898180581015300,4.901015380859375,-0.14671427011489868,-0.01969146728515625,-0.0482177734375
1760898180590702300,4.910702392578125,-0.07325178384780884,-0.03468894958496094,0.08451628684997559
1760898180600389600,4.9203896484375,-0.005355715751647949,-0.10126686096191406,0.040415406227111816
1760898180610076700,4.93007666015625,-0.0040076375007629395,-0.20903396606445312,0.01595628261566162
1760898180619764000,4.939763916015625,-0.05402714014053345,-0.24895000457763672,0.039670348167419434
1760898180629451300,4.949451171875,-0.0648200511932373,-0.17037010192871094,0.007180571556091309
1760898180639138300,4.95913818359375,-0.017518579959869385,-0.017578125,0.074684739112854
1760898180648825600,4.96882568359375,0.07743000984191895,0.034081459045410156,0.21704280376434326
1760898180658513000,4.978512939453125,0.08680146932601929,-0.009128570556640625,0.3526268005371094
1760898180668200000,4.988199951171875,0.07678443193435669,0.03314685821533203,0.533456563949585
1760898180677887200,4.99788720703125,0.0613093376159668,0.10302257537841797,0.6272890567779541
1760898180687574500,5.007574462890625,0.06834805011749268,0.1294260025024414,0.6073428392410278
1760898180697261600,5.017261474609375,0.0787859559059143,0.113067626953125,0.6118742227554321
1760898180706948900,5.026948974609375,0.11160361766815186,0.09693336486816406,0.6446865797042847
1760898180716636200,5.03663623046875,0.09591823816299438,0.04330635070800781,0.657850980758667
1760898180726323200,5.0463232421875,0.0002225637435913086,0.02806568145751953,0.7218095064163208
1760898180736010500,5.056010498046875,-0.11278271675109863,0.050548553466796875,0.7461024522781372
1760898180745697800,5.06569775390625,-0.22399109601974487,0.10545825958251953,0.6986434459686279
1760898180755384800,5.075384765625,-0.23406457901000977,0.14062881469726562,0.6329494714736938
1760898180765072100,5.085072021484375,-0.19172006845474243,0.05764484405517578,0.5874080657958984
1760898180774759400,5.094759521484375,-0.1691533923149109,-0.02389812469482422,0.5430341958999634
1760898180784446500,5.104446533203125,-0.10038667917251587,-0.04288482666015625,0.5420471429824829
1760898180794133800,5.1141337890625,-0.037410199642181396,-0.02389240264892578,0.5270061492919922
1760898180803821000,5.123821044921875,-0.06900960206985474,-0.03342151641845703,0.48390209674835205
1760898180813508000,5.133508056640625,-0.1129986047744751,-0.11798286437988281,0.3992716073989868
1760898180823195400,5.1431953125,-0.15955758094787598,-0.18684005737304688,0.3400413990020752
1760898180832882700,5.152882568359375,-0.18035250902175903,-0.2260293960571289,0.2969897985458374
1760898180842569700,5.16256982421875,-0.1425929069519043,-0.2170257568359375,0.2049776315689087
1760898180852257000,5.172257080078125,-0.07584291696548462,-0.15122699737548828,0.10728740692138672
1760898180861944300,5.1819443359375,0.056915462017059326,-0.1096029281616211,0.06978940963745117
1760898180871631400,5.19163134765625,0.16006076335906982,-0.06359291076660156,0.07704424858093262
1760898180881318700,5.201318603515625,0.21927225589752197,0.019565582275390625,0.10914826393127441
1760898180891006000,5.211005859375,0.28215521574020386,0.10626029968261719,0.1936793327331543
1760898180900693000,5.22069287109375,0.31998828053474426,0.1399097442626953,0.3108159303665161
1760898180910380300,5.23038037109375,0.34203940629959106,0.14950275421142578,0.4594985246658325
1760898180920067600,5.240067626953125,0.41382911801338196,0.1400165557861328,0.6481428146362305
1760898180929754600,5.249754638671875,0.47795140743255615,0.17287635803222656,0.8098793625831604
1760898180939442000,5.25944189453125,0.5346307754516602,0.2049722671508789,0.9495542645454407
1760898180949129200,5.269129150390625,0.564805805683136,0.2833280563354492,1.0062134265899658
1760898180958816300,5.278816162109375,0.5218597650527954,0.33184337615966797,1.0516068935394287
1760898180968503600,5.288503662109375,0.48200055956840515,0.3556547164916992,1.029151201248169
1760898180978190800,5.29819091796875,0.41220521926879883,0.3740348815917969,0.9542616605758667
1760898180987878000,5.3078779296875,0.4170951545238495,0.41071224212646484,0.8516688346862793
1760898180997565200,5.317565185546875,0.4061405062675476,0.42313575744628906,0.7129423022270203
1760898181007252500,5.32725244140625,0.35567429661750793,0.3552818298339844,0.6001887321472168
1760898181016939800,5.336939697265625,0.37968483567237854,0.25569915771484375,0.4477618932723999
1760898181026626800,5.346626708984375,0.3880991041660309,0.17676353454589844,0.3365577459335327
1760898181036314000,5.356314208984375,0.3808705806732178,0.09926605224609375,0.21389365196228027
1760898181046001400,5.36600146484375,0.3480367660522461,0.10776042938232422,0.10759782791137695
1760898181055688400,5.3756884765625,0.2984004318714142,0.10654067993164062,0.04488193988800049
1760898181065375700,5.385375732421875,0.16591207683086395,0.14744853973388672,0.015074729919433594
1760898181075063000,5.39506298828125,-0.010794490575790405,0.15447425842285156,0.11158287525177002
1760898181084750000,5.40475,-0.19366878271102905,0.18923568725585938,0.016188621520996094
1760898181094437400,5.414437255859375,-0.2827240824699402,0.2324810028076172,-0.09865880012512207
1760898181104124700,5.424124755859375,-0.45198407769203186,0.1854534149169922,-0.17539429664611816
1760898181113811700,5.433811767578125,-0.7698204517364502,-0.0676889419555664,-0.2601381540298462
1760898181123499000,5.4434990234375,-1.0451655387878418,-0.5280427932739258,-0.3752681016921997
1760898181133186300,5.453186279296875,-1.2459981441497803,-0.8767919540405273,-0.4962502717971802
1760898181142873300,5.462873291015625,-1.108961582183838,-1.1015625,-0.5941721200942993
1760898181152560600,5.472560546875,-0.9164104461669922,-1.2184209823608398,-0.7818702459335327
1760898181162248000,5.482248046875,-0.601690948009491,-1.3279571533203125,-0.8962298631668091
1760898181181622300,5.501622314453125,0.3313702940940857,-1.162663459777832,-1.1408432722091675
1760898181191309600,5.5113095703125,0.5186474323272705,-0.9362716674804688,-1.1133129596710205
1760898181200996600,5.52099658203125,0.5043081641197205,-0.7908449172973633,-0.9539161920547485
1760898181210684000,5.530683837890625,0.22841575741767883,-0.5733671188354492,-0.7489974498748779
1760898181220371200,5.54037109375,-0.032054878771305084,-0.23159503936767578,-0.3705676794052124
1760898181230058200,5.550058349609375,-0.31992441415786743,-0.00016880035400390625,-0.10785019397735596
1760898181239745500,5.55974560546875,-0.486555278301239,0.18754959106445312,0.03700554370880127
1760898181249432800,5.569432861328125,-0.4835268259048462,0.39348888397216797,0.0965733528137207
1760898181259120000,5.5791201171875,-0.24760515987873077,0.44104766845703125,0.06684434413909912
1760898181268807200,5.58880712890625,0.23342084884643555,0.5310659408569336,-0.28070735931396484
1760898181278494500,5.598494384765625,0.6453049182891846,1.0073490142822266,-0.21346235275268555
1760898181288181800,5.608181640625,0.554877758026123,1.1817817687988281,-0.28560328483581543
1760898181297868800,5.617868896484375,0.17846381664276123,1.0124359130859375,-0.44414424896240234
1760898181307556000,5.62755615234375,-0.016715526580810547,0.7820558547973633,-0.6455094814300537
1760898181326930400,5.646930419921875,0.15207791328430176,0.43027687072753906,-0.9535183906555176
1760898181336617700,5.65661767578125,0.13135844469070435,0.2277536392211914,-1.0067133903503418
1760898181346305000,5.666304931640625,0.09131503105163574,0.12211322784423828,-0.8813352584838867
1760898181355992300,5.675992431640625,0.04125416278839111,0.046128273010253906,-0.8507826328277588
1760898181365679400,5.685679443359375,-0.03812551498413086,-0.05301856994628906,-0.963752031326294
1760898181375366700,5.69536669921875,-0.019793152809143066,0.0057468414306640625,-0.9004151821136475
1760898181385053700,5.7050537109375,0.14109909534454346,0.007153511047363281,-0.8034467697143555
1760898181394741000,5.714740966796875,-0.15944862365722656,0.11874008178710938,-0.5387492179870605
1760898181404428300,5.72442822265625,-0.32489365339279175,0.0777444839477539,-0.46027541160583496
1760898181414115600,5.734115478515625,-0.37500840425491333,0.08052730560302734,-0.3041043281555176
1760898181423802600,5.743802734375,-0.4723782539367676,0.1317768096923828,-0.09421849250793457
1760898181433490000,5.753489990234375,-0.4583338499069214,0.1452198028564453,0.020943403244018555
1760898181443177200,5.76317724609375,-0.5483260750770569,0.11108970642089844,0.002018451690673828
1760898181452864300,5.7728642578125,-0.5656595230102539,0.0053081512451171875,0.05805778503417969
1760898181462551600,5.782551513671875,-0.631659209728241,-0.09207916259765625,-0.22466349601745605
1760898181472238800,5.79223876953125,0.027689099311828613,0.046166419982910156,-0.14871740341186523
1760898181481926000,5.80192578125,-0.12218475341796875,0.11817646026611328,-0.06989598274230957
1760898181491613200,5.81161328125,-0.49187445640563965,-0.028127670288085938,-0.1797163486480713
1760898181501300500,5.821300537109375,-0.7264096140861511,-0.27169132232666016,-0.16516447067260742
1760898181510987800,5.83098779296875,-0.9002843499183655,-0.4392662048339844,-0.08105778694152832
1760898181520674800,5.8406748046875,-0.6599237322807312,-0.47786712646484375,-0.034522056579589844
1760898181530362000,5.850362060546875,-0.4542975425720215,-0.5116357803344727,-0.14790987968444824
1760898181540049400,5.86004931640625,-0.4178476333618164,-0.5211868286132812,-0.22927451133728027
1760898181549736400,5.869736328125,-0.369925856590271,-0.4969825744628906,-0.3461315631866455
1760898181559423700,5.879423828125,-0.30259203910827637,-0.5248708724975586,-0.427187442779541
1760898181569111000,5.889111083984375,-0.23652303218841553,-0.5091123580932617,-0.48734068870544434
1760898181578798000,5.898798095703125,-0.13400423526763916,-0.48798656463623047,-0.5364186763763428
1760898181588485400,5.9084853515625,-0.01931631565093994,-0.4517812728881836,-0.52146315574646
1760898181598172700,5.918172607421875,0.0549548864364624,-0.3480997085571289,-0.5766260623931885
1760898181607860000,5.92785986328125,0.20852231979370117,-0.2825021743774414,-0.6122758388519287
1760898181617547000,5.937547119140625,0.4092729091644287,-0.174285888671875,-0.6295742988586426
1760898181627234300,5.947234375,0.5284121036529541,-0.12388992309570312,-0.5237267017364502
1760898181636921600,5.956921630859375,0.45532822608947754,-0.09290409088134766,-0.4290282726287842
1760898181646608600,5.966608642578125,0.3862450122833252,-0.08617496490478516,-0.29813265800476074
1760898181656296000,5.9762958984375,0.18187284469604492,-0.02254199981689453,-0.1938943862915039
1760898181665983200,5.985983154296875,-0.05289876461029053,-0.07407093048095703,-0.1502084732055664
1760898181675670300,5.995670166015625,-0.030194997787475586,-0.0686178207397461,-0.11355400085449219
1760898181685357600,6.005357666015625,-0.12746238708496094,-0.07767391204833984,-0.16393494606018066
1760898181695044900,6.015044921875,-0.10498487949371338,-0.1869182586669922,-0.3189990520477295
1760898181704732200,6.024732177734375,-0.05366337299346924,-0.21430206298828125,-0.39076757431030273
1760898181714419200,6.034419189453125,-0.060631394386291504,-0.29817867279052734,-0.4888954162597656
1760898181724106500,6.0441064453125,0.23971927165985107,-0.30527400970458984,-0.4894871711730957
1760898181733793800,6.053793701171875,0.42541074752807617,-0.23085975646972656,-0.31180500984191895
1760898181743480800,6.063480712890625,0.3226665258407593,-0.3043174743652344,-0.3158700466156006
1760898181753168100,6.073168212890625,0.6884214878082275,-0.14858341217041016,-0.12921762466430664
1760898181762855400,6.08285546875,0.561876654624939,-0.15810298919677734,-0.05304741859436035
1760898181772542500,6.09254248046875,0.5347719192504883,-0.10641098022460938,0.0015716552734375
1760898181782229800,6.102229736328125,0.44656407833099365,-0.14072322845458984,-0.0313260555267334
1760898181791917000,6.1119169921875,0.2898660898208618,-0.13263893127441406,-0.018191814422607422
1760898181801604400,6.121604248046875,0.07586061954498291,-0.1629772186279297,-0.13859844207763672
1760898181811291400,6.13129150390625,-0.16626012325286865,-0.2778453826904297,-0.16326618194580078
1760898181820978700,6.140978759765625,-0.25112640857696533,-0.41008949279785156,-0.26749110221862793
1760898181830666000,6.150666015625,-0.3783695697784424,-0.5311441421508789,-0.30818939208984375
1760898181840353000,6.16035302734375,-0.358325719833374,-0.6459140777587891,-0.36600494384765625
1760898181850040300,6.170040283203125,-0.40156733989715576,-0.7307949066162109,-0.45484375953674316
1760898181859727600,6.1797275390625,-0.19554567337036133,-0.5559377670288086,-0.475696325302124
1760898181869415000,6.189414794921875,0.049323320388793945,-0.3280668258666992,-0.5235185623168945
1760898181879102000,6.19910205078125,0.11487984657287598,-0.09953498840332031,-0.5739963054656982
1760898181888789200,6.208789306640625,0.016041278839111328,0.09224987030029297,-0.6087892055511475
1760898181898476500,6.2184765625,-0.30906760692596436,0.21544742584228516,-0.5767736434936523
1760898181908163600,6.22816357421875,-0.5054317712783813,0.14425945281982422,-0.47965312004089355
1760898181917851000,6.237850830078125,-0.4943145513534546,-0.057381629943847656,-0.3902146816253662
1760898181927538200,6.2475380859375,-0.46135878562927246,-0.30791378021240234,-0.4178743362426758
1760898181937225200,6.25722509765625,-0.42904579639434814,-0.40445613861083984,-0.4526224136352539
1760898181946912500,6.26691259765625,-0.3293881416320801,-0.4582939147949219,-0.6877956390380859
1760898181956599800,6.276599853515625,-0.2086963653564453,-0.4796571731567383,-0.8653087615966797
1760898181966287000,6.286287109375,-0.24557721614837646,-0.5581150054931641,-0.970421314239502
1760898181975974100,6.29597412109375,-0.39537501335144043,-0.5980205535888672,-0.9978997707366943
1760898181985661400,6.305661376953125,-0.5384490489959717,-0.5526838302612305,-0.9905335903167725
1760898181995348700,6.3153486328125,-0.4189137816429138,-0.3061542510986328,-1.000908613204956
1760898182005035800,6.325035888671875,-0.20388281345367432,-0.022025108337402344,-0.9724276065826416
1760898182014723000,6.33472314453125,-0.13577044010162354,0.19580364227294922,-0.853858470916748
1760898182024410400,6.344410400390625,-0.13873791694641113,0.5375299453735352,-0.5367627143859863
1760898182034097700,6.35409765625,-0.25320249795913696,0.6909046173095703,-0.3920712471008301
1760898182043784700,6.36378466796875,-0.40673065185546875,0.8618021011352539,-0.16811275482177734
1760898182053472000,6.373471923828125,-0.5174756050109863,0.894200325012207,-0.07582926750183105
1760898182063159300,6.3831591796875,-0.4785163402557373,0.7236251831054688,-0.0971221923828125
1760898182072846600,6.3928466796875,-0.33748340606689453,0.42474365234375,-0.03408980369567871
1760898182082533600,6.40253369140625,-0.25783056020736694,0.06852531433105469,-0.004318952560424805
1760898182092221000,6.412220947265625,-0.21870732307434082,-0.18212223052978516,0.013536691665649414
1760898182101908200,6.421908203125,-0.10320454835891724,-0.3033008575439453,0.1978611946105957
1760898182111595300,6.43159521484375,-0.05780309438705444,-0.5440473556518555,-0.025849103927612305
1760898182121282600,6.441282470703125,-0.13937288522720337,-0.5936307907104492,-0.1405322551727295
1760898182130969900,6.450969970703125,-0.208757221698761,-0.4949359893798828,-0.11581611633300781
1760898182140657000,6.460656982421875,-0.2225925326347351,-0.3957672119140625,-0.012088775634765625
1760898182150344200,6.47034423828125,-0.26198461651802063,-0.36724281311035156,0.11014389991760254
1760898182160031500,6.480031494140625,-0.4135361313819885,-0.2797403335571289,0.4053943157196045
1760898182169718800,6.48971875,-0.6164132356643677,-0.30575084686279297,0.3363955020904541
1760898182179405800,6.49940576171875,-0.627086877822876,-0.3452157974243164,0.17436718940734863
1760898182189093000,6.509093017578125,-0.3965257704257965,-0.12081336975097656,0.5275814533233643
1760898182198780400,6.518780517578125,0.008554071187973022,0.07096576690673828,0.6886829137802124
1760898182208467500,6.528467529296875,0.35764744877815247,0.2869691848754883,0.7609673738479614
1760898182218154800,6.53815478515625,0.6012246608734131,0.5645580291748047,0.5935614109039307
1760898182227842000,6.547842041015625,0.9635319709777832,0.6788520812988281,0.667847752571106
1760898182237529300,6.557529296875,1.3535088300704956,0.6777381896972656,0.5574750900268555
1760898182247216400,6.56721630859375,1.2950507402420044,0.5951471328735352,0.5357258319854736
1760898182256903700,6.576903564453125,0.8651059865951538,0.5416812896728516,0.7859989404678345
1760898182266591000,6.586591064453125,0.4191168248653412,0.4456920623779297,1.0645861625671387
1760898182276278000,6.596278076171875,0.3932819366455078,0.24945926666259766,1.1932470798492432
1760898182285965300,6.60596533203125,0.6674941778182983,0.16754150390625,1.2376033067703247
1760898182295652600,6.615652587890625,0.82907634973526,0.29040050506591797,1.2601808309555054
1760898182305340000,6.62533984375,0.8841249346733093,0.4076662063598633,1.2044280767440796
1760898182315027000,6.63502685546875,0.9429111480712891,0.4768524169921875,1.2201969623565674
1760898182324714200,6.64471435546875,0.9812586903572083,0.47928524017333984,1.3370622396469116
1760898182334401500,6.654401611328125,1.0564597845077515,0.4200859069824219,1.3835831880569458
1760898182344088800,6.6640888671875,1.1874810457229614,0.37079334259033203,1.101375937461853
1760898182353775900,6.67377587890625,1.196328043937683,0.35071849822998047,0.9026949405670166
1760898182363463200,6.683463134765625,1.1823911666870117,0.3505134582519531,0.850398063659668
1760898182373150500,6.693150390625,1.124954342842102,0.3320646286010742,0.8395485877990723
1760898182382837500,6.70283740234375,0.9985780715942383,0.30976200103759766,1.0275704860687256
1760898182392524800,6.71252490234375,0.7208401560783386,0.14974689483642578,1.1982393264770508
1760898182402212000,6.722212158203125,0.5461740493774414,0.03348064422607422,1.3789867162704468
1760898182411899400,6.7318994140625,0.6929965019226074,0.07493019104003906,1.3435426950454712
1760898182421586400,6.74158642578125,0.9025470018386841,0.11572551727294922,1.2293972969055176
1760898182431273700,6.751273681640625,1.134680151939392,0.05040550231933594,1.016311764717102
1760898182440961000,6.7609609375,1.1602191925048828,-0.13500690460205078,0.8099803924560547
1760898182450648000,6.77064794921875,1.087467908859253,-0.15333271026611328,0.602454423904419
1760898182460335400,6.78033544921875,0.8744416236877441,-0.13311290740966797,0.45821547508239746
1760898182470022700,6.790022705078125,0.5451788902282715,-0.22659778594970703,0.4789459705352783
1760898182479710000,6.7997099609375,0.23002326488494873,-0.39514732360839844,0.48273396492004395
1760898182489397000,6.80939697265625,0.3343638777732849,-0.49553775787353516,0.549576997756958
1760898182499084300,6.819084228515625,0.11716485023498535,-0.4423179626464844,0.7873358726501465
1760898182508771600,6.828771484375,-0.47197479009628296,-0.32205963134765625,1.0890835523605347
1760898182518459000,6.838458984375,-0.7193149328231812,-0.16896915435791016,1.1284981966018677
1760898182528146000,6.84814599609375,-0.6658545732498169,0.18824481964111328,1.0446048974990845
1760898182537833200,6.857833251953125,-0.7239043116569519,0.6059885025024414,0.9159166812896729
1760898182547520500,6.8675205078125,-1.0116873979568481,0.7261734008789062,0.5575127601623535
1760898182557207600,6.87720751953125,-0.8683149814605713,0.6732072830200195,0.11738181114196777
1760898182566894800,6.886894775390625,-0.6428723335266113,0.42840099334716797,-0.2795886993408203
1760898182576582100,6.89658203125,-0.479908287525177,0.015949249267578125,-0.6865670680999756
1760898182586269400,6.90626953125,-0.43432551622390747,-0.2439279556274414,-1.0756621360778809
1760898182595956500,6.91595654296875,-0.3261987566947937,-0.39928722381591797,-1.3087670803070068
1760898182605643800,6.925643798828125,-0.2239922285079956,-0.42096614837646484,-1.388631820678711
1760898182615331000,6.9353310546875,-0.5036144256591797,-0.3890962600708008,-1.1734216213226318
1760898182625018400,6.945018310546875,-0.6988202333450317,-0.3314847946166992,-1.0334806442260742
1760898182634705400,6.954705322265625,-0.595461368560791,-0.3148508071899414,-1.0588147640228271
1760898182644392700,6.964392822265625,-0.15029841661453247,-0.1387176513671875,-1.0200135707855225
1760898182654080000,6.974080078125,0.21996301412582397,0.11542034149169922,-0.5688624382019043
1760898182663767000,6.98376708984375,0.302496075630188,0.35664939880371094,-0.06104135513305664
1760898182673454300,6.993454345703125,0.12347900867462158,0.4747638702392578,0.3092331886291504
1760898182683141600,7.0031416015625,-0.13159924745559692,0.3978538513183594,0.44850635528564453
1760898182692829000,7.012828857421875,-0.34663844108581543,0.21170616149902344,0.479384183883667
1760898182702516000,7.022515869140625,-0.36475032567977905,0.0877685546875,0.2962005138397217
1760898182712203300,7.032203369140625,-0.22886061668395996,0.06827449798583984,0.08589792251586914
1760898182721890600,7.041890625,-0.11178433895111084,0.10499000549316406,-0.09766054153442383
1760898182731577600,7.05157763671875,-0.08332157135009766,0.2455434799194336,-0.21985435485839844
1760898182741265000,7.061264892578125,-0.2485872507095337,0.41831111907958984,-0.28459811210632324
1760898182750952200,7.0709521484375,-0.3315843343734741,0.5325374603271484,-0.4117145538330078
1760898182760639500,7.080639404296875,-0.44411760568618774,0.6792163848876953,-0.5058329105377197
1760898182770326500,7.090326416015625,-0.38707435131073,0.7296075820922852,-0.4618806838989258
1760898182780013800,7.100013916015625,-0.34404635429382324,0.5646934509277344,-0.5815186500549316
1760898182789701000,7.109701171875,-0.2544248104095459,0.6442060470581055,-0.22704410552978516
1760898182799388400,7.119388427734375,-0.13806581497192383,0.6099815368652344,-0.03807973861694336
1760898182809075500,7.129075439453125,-0.1388171911239624,0.5098609924316406,0.027761220932006836
1760898182818762800,7.1387626953125,-0.16510796546936035,0.45334625244140625,0.04584670066833496
1760898182828450000,7.148449951171875,-0.08638334274291992,0.44973182678222656,0.16464519500732422
1760898182838137000,7.15813720703125,0.03276264667510986,0.29775333404541016,0.1587975025177002
1760898182847824400,7.167824462890625,0.07456386089324951,0.2122964859008789,0.18616127967834473
1760898182857511700,7.17751171875,0.03923523426055908,0.17383193969726562,0.1265263557434082
1760898182867199000,7.187198974609375,-0.04042816162109375,0.062652587890625,-0.006796360015869141
1760898182876886000,7.196885986328125,-0.05474972724914551,-0.07809734344482422,-0.0848093032836914
1760898182886573300,7.2065732421875,-0.013709545135498047,-0.17172813415527344,-0.1069638729095459
1760898182896260600,7.216260498046875,-0.05644500255584717,-0.1988668441772461,-0.08670926094055176
1760898182905947600,7.22594775390625,-0.0925518274307251,-0.2454090118408203,-0.05242323875427246
1760898182925322200,7.245322265625,-0.1401810646057129,-0.21535015106201172,-0.07064175605773926
1760898182935009500,7.255009521484375,-0.17039787769317627,-0.15328407287597656,-0.018039941787719727
1760898182944696600,7.264696533203125,-0.21784305572509766,-0.06773185729980469,0.015619277954101562
1760898182954384000,7.2743837890625,-0.2542240619659424,-0.07807064056396484,-0.022277116775512695
1760898182964071200,7.2840712890625,-0.270238995552063,-0.10763931274414062,-0.05039811134338379
1760898182973758500,7.293758544921875,-0.22292101383209229,-0.12775897979736328,-0.0926513671875
1760898182983445500,7.303445556640625,-0.179215669631958,-0.2005290985107422,-0.1394941806793213
1760898182993132800,7.3131328125,-0.13478684425354004,-0.2254934310913086,-0.21003150939941406
1760898183002820000,7.322820068359375,-0.10430634021759033,-0.24082565307617188,-0.2562134265899658
1760898183012507400,7.33250732421875,-0.0639033317565918,-0.31821537017822266,-0.306976318359375
1760898183022194400,7.3421943359375,-0.013996720314025879,-0.36197757720947266,-0.3384742736816406
1760898183031881700,7.3518818359375,-0.012386798858642578,-0.4390373229980469,-0.3558332920074463
1760898183041569000,7.361569091796875,-0.015784740447998047,-0.44722747802734375,-0.29697561264038086
1760898183051256300,7.37125634765625,-0.05309724807739258,-0.45972537994384766,-0.27177000045776367
1760898183060943400,7.380943359375,-0.09117257595062256,-0.45288944244384766,-0.2702977657318115
1760898183070630700,7.390630615234375,-0.07801496982574463,-0.37529468536376953,-0.27797746658325195
1760898183080318000,7.40031787109375,-0.10879790782928467,-0.355133056640625,-0.19577932357788086
1760898183090005000,7.4100048828125,-0.14491629600524902,-0.3210420608520508,-0.2092118263244629
1760898183099692300,7.4196923828125,-0.14880526065826416,-0.34386348724365234,-0.1850578784942627
1760898183109379600,7.429379638671875,-0.19192028045654297,-0.2955198287963867,-0.13330340385437012
1760898183119067000,7.43906689453125,-0.19807219505310059,-0.26189327239990234,-0.09658598899841309
1760898183128754000,7.44875390625,-0.24828708171844482,-0.1484546661376953,-0.06962299346923828
1760898183138441200,7.458441162109375,-0.2381516695022583,-0.060161590576171875,-0.14191198348999023
1760898183148128500,7.46812841796875,-0.19150888919830322,0.07385635375976562,-0.1942288875579834
1760898183157815800,7.47781591796875,-0.08459854125976562,0.21041584014892578,-0.22199082374572754
1760898183167502800,7.4875029296875,-0.11183738708496094,0.2695274353027344,-0.3009810447692871
1760898183177190100,7.497190185546875,-0.07325458526611328,0.3323659896850586,-0.383622407913208
1760898183186877400,7.50687744140625,-0.04053068161010742,0.3707151412963867,-0.3660547733306885
1760898183196564500,7.516564453125,0.04348862171173096,0.3424797058105469,-0.4148390293121338
1760898183206251800,7.526251708984375,0.07929790019989014,0.3899965286254883,-0.3827393054962158
1760898183215939000,7.53593896484375,0.06263983249664307,0.3944072723388672,-0.3652384281158447
1760898183225626400,7.54562646484375,0.050818443298339844,0.4082479476928711,-0.27724552154541016
1760898183235313400,7.5553134765625,0.020196199417114258,0.3796100616455078,-0.1810743808746338
1760898183245000700,7.565000732421875,0.008887529373168945,0.32783985137939453,-0.10561585426330566
1760898183254688000,7.57468798828125,0.02170693874359131,0.2296161651611328,-0.05555462837219238
1760898183264375300,7.584375244140625,0.08220791816711426,0.12798118591308594,-0.016405344009399414
1760898183274062300,7.594062255859375,0.1051398515701294,0.07004261016845703,0.04507851600646973
1760898183283749600,7.60374951171875,0.12414586544036865,-0.02020549774169922,0.06743812561035156
1760898183293437000,7.61343701171875,0.11568927764892578,-0.1139383316040039,0.09850931167602539
1760898183303124200,7.623124267578125,0.11756527423858643,-0.19232654571533203,0.05782437324523926
1760898183312811300,7.632811279296875,0.0966939926147461,-0.28853416442871094,0.08788108825683594
1760898183322498600,7.64249853515625,0.06249821186065674,-0.33154964447021484,0.10769963264465332
1760898183332185900,7.652185791015625,0.019611358642578125,-0.34564971923828125,0.14597463607788086
1760898183341873200,7.661873046875,-0.013258814811706543,-0.34532642364501953,0.16495013236999512
1760898183351560200,7.671560302734375,-0.02694118022918701,-0.2884492874145508,0.20261311531066895
1760898183361247500,7.68124755859375,-0.026427149772644043,-0.24181079864501953,0.23054242134094238
1760898183370934800,7.690934814453125,-0.007347583770751953,-0.22416305541992188,0.24852395057678223
1760898183380621800,7.700621826171875,0.011272430419921875,-0.1597137451171875,0.23330092430114746
1760898183390309000,7.71030908203125,0.05322456359863281,-0.10113239288330078,0.2134103775024414
1760898183399996400,7.719996337890625,0.08974456787109375,-0.05297088623046875,0.17960762977600098
1760898183409683700,7.72968359375,0.1021730899810791,-0.005663871765136719,0.1368107795715332
1760898183419370800,7.739370849609375,0.14264333248138428,0.04083538055419922,0.09937620162963867
1760898183429058000,7.74905810546875,0.14465713500976562,0.11477947235107422,0.07655453681945801
1760898183438745300,7.758745361328125,0.16535913944244385,0.16871929168701172,0.05421710014343262
1760898183448432600,7.7684326171875,0.1571972370147705,0.19828319549560547,0.04638338088989258
1760898183458119700,7.77811962890625,0.13957476615905762,0.20384693145751953,0.06687712669372559
1760898183467807000,7.787806884765625,0.10779440402984619,0.2141132354736328,0.08713531494140625
1760898183477494300,7.797494384765625,0.08552229404449463,0.22426700592041016,0.10229349136352539
1760898183487181600,7.807181640625,0.10084402561187744,0.19664287567138672,0.0888526439666748
1760898183496868600,7.81686865234375,0.11575675010681152,0.16947174072265625,0.13197970390319824
1760898183506556000,7.826555908203125,0.11632251739501953,0.10507774353027344,0.1413567066192627
1760898183516243200,7.8362431640625,0.11721038818359375,0.06522083282470703,0.15995526313781738
1760898183525930500,7.845930419921875,0.11827397346496582,0.06833553314208984,0.17348742485046387
1760898183535617500,7.855617431640625,0.12435531616210938,0.02907848358154297,0.1776731014251709
1760898183545304800,7.865304931640625,0.13522934913635254,-0.0000934600830078125,0.1866612434387207
1760898183554992000,7.8749921875,0.12725305557250977,-0.028726577758789062,0.18163728713989258
1760898183564679200,7.88467919921875,0.11931586265563965,-0.052120208740234375,0.17212128639221191
1760898183574366500,7.894366455078125,0.1256086826324463,-0.060935020446777344,0.17710089683532715
1760898183584053800,7.9040537109375,0.14593708515167236,-0.06955242156982422,0.15865039825439453
1760898183593741000,7.913740966796875,0.137681245803833,-0.04973793029785156,0.1736125946044922
1760898183603428000,7.923427978515625,0.13433408737182617,-0.06786918640136719,0.1461167335510254
1760898183613115400,7.933115478515625,0.13598525524139404,-0.07627105712890625,0.13338017463684082
1760898183622802700,7.942802734375,0.13781309127807617,-0.05628490447998047,0.11631369590759277
1760898183632490000,7.952489990234375,0.13515186309814453,-0.04134368896484375,0.09024643898010254
1760898183642177000,7.962177001953125,0.1423332691192627,-0.00782012939453125,0.08839607238769531
1760898183651864300,7.9718642578125,0.1450437307357788,-0.031383514404296875,0.09130120277404785
1760898183661551600,7.981551513671875,0.14774084091186523,-0.0263824462890625,0.10808014869689941
1760898183671239000,7.991239013671875,0.13630759716033936,-0.012085914611816406,0.12449049949645996
1760898183680926000,8.000926025390624,0.15308523178100586,0.0019474029541015625,0.1404130458831787
1760898183690613200,8.01061328125,0.1316136121749878,0.0016222000122070312,0.17467832565307617
1760898183700300500,8.020300537109375,0.11952567100524902,-0.01755809783935547,0.13742351531982422
1760898183719675000,8.0396748046875,0.11862707138061523,0.042962074279785156,0.11967182159423828
1760898183729362200,8.049362060546875,0.1255103349685669,0.060642242431640625,0.08765649795532227
1760898183739049500,8.059049560546875,0.09958410263061523,0.0544586181640625,0.05148792266845703
1760898183748736500,8.068736572265625,0.08862471580505371,0.08120059967041016,0.0487060546875
1760898183768111000,8.088111083984375,0.06751716136932373,0.0815887451171875,0.03824281692504883
1760898183777798400,8.09779833984375,0.08570671081542969,0.051219940185546875,0.025848865509033203
1760898183787485700,8.107485595703125,0.06577014923095703,0.0025119781494140625,0.04172182083129883
1760898183797172700,8.1171728515625,0.06989240646362305,-0.026679039001464844,-0.008845329284667969
1760898183806860000,8.126860107421875,0.05066359043121338,-0.031861305236816406,0.012145280838012695
1760898183816547300,8.13654736328125,0.041458964347839355,-0.060482025146484375,-0.018782854080200195
1760898183826234400,8.146234375,0.02811896800994873,-0.08862018585205078,-0.02068638801574707
1760898183835921700,8.155921630859375,0.024924039840698242,-0.06919288635253906,-0.03623652458190918
1760898183845609000,8.16560888671875,0.03157985210418701,-0.045348167419433594,-0.008812665939331055
1760898183855296300,8.175296142578125,0.05719482898712158,-0.036025047302246094,0.004163265228271484
1760898183864983300,8.1849833984375,0.07786107063293457,-0.03627490997314453,0.021717309951782227
1760898183874670600,8.194670654296875,0.07459092140197754,-0.012958526611328125,0.02022409439086914
1760898183884358000,8.20435791015625,0.07606375217437744,-0.004137992858886719,0.028197526931762695
1760898183894045200,8.214045166015625,0.07261872291564941,-0.00013828277587890625,0.026618480682373047
1760898183903732200,8.223732177734375,0.06435561180114746,-0.047949790954589844,0.01561594009399414
1760898183913419500,8.23341943359375,0.05138564109802246,-0.0007953643798828125,0.037825822830200195
1760898183923106800,8.24310693359375,0.024636268615722656,0.0079193115234375,-0.0014603137969970703
1760898183932794000,8.252794189453125,0.0312882661819458,0.0023832321166992188,-0.002394437789916992
1760898183942481200,8.262481201171875,0.028279423713684082,0.0016651153564453125,-0.008038043975830078
1760898183952168400,8.27216845703125,0.039438605308532715,0.024458885192871094,-0.004282951354980469
1760898183961855700,8.281855712890625,0.0313878059387207,0.02806854248046875,-0.005353450775146484
1760898183971543000,8.29154296875,0.0563504695892334,0.04573631286621094,0.01237940788269043
1760898183981230000,8.30122998046875,0.05266284942626953,0.05837249755859375,0.02029705047607422
1760898183990917400,8.31091748046875,0.06301629543304443,0.06611347198486328,0.013946533203125
1760898184000604700,8.320604736328125,0.049453139305114746,0.07850074768066406,0.036045074462890625
1760898184010292000,8.3302919921875,0.021644949913024902,0.010736465454101562,0.06246161460876465
1760898184019979000,8.33997900390625,0.04606759548187256,0.014728546142578125,0.09798383712768555
1760898184029666300,8.349666259765625,0.004201531410217285,-0.0048427581787109375,0.10478663444519043
1760898184039353600,8.359353515625,-0.018235445022583008,-0.0005598068237304688,0.10671281814575195
1760898184049041000,8.369041015625,-0.03597736358642578,0.027301788330078125,0.08996152877807617
1760898184058728000,8.37872802734375,0.008031964302062988,0.017083168029785156,0.08318066596984863
1760898184068415200,8.388415283203125,0.00920259952545166,0.021215438842773438,0.12393975257873535
1760898184078102500,8.3981025390625,-0.03667402267456055,-0.017107009887695312,0.11687183380126953
1760898184087789800,8.407789794921875,-0.02554631233215332,0.001708984375,0.13340044021606445
1760898184097476900,8.417476806640625,0.004235029220581055,0.0013761520385742188,0.14491558074951172
1760898184107164200,8.4271640625,-0.018183231353759766,0.0010175704956054688,0.15146327018737793
1760898184116851500,8.4368515625,-0.031093239784240723,0.014820098876953125,0.10609889030456543
1760898184126538800,8.446538818359375,0.008130192756652832,0.042449951171875,0.12254595756530762
1760898184136225800,8.456225830078125,-0.00964808464050293,0.04135322570800781,0.08692145347595215
1760898184145913000,8.4659130859375,-0.017626404762268066,0.04498100280761719,0.08018279075622559
1760898184155600400,8.475600341796875,-0.049201369285583496,0.010859489440917969,0.04975414276123047
1760898184165287700,8.48528759765625,-0.03306865692138672,0.005542755126953125,0.06226086616516113
1760898184174974700,8.494974609375,-0.031231164932250977,0.023843765258789062,0.060497283935546875
1760898184184662000,8.504662109375,-0.048294782638549805,0.004180908203125,0.035162925720214844
1760898184194349300,8.514349365234375,-0.04635882377624512,0.003658294677734375,0.04308319091796875
1760898184204036400,8.524036376953125,-0.11115241050720215,0.036271095275878906,0.06043815612792969
1760898184213723600,8.5337236328125,-0.08075094223022461,0.030699729919433594,-0.011884927749633789
1760898184223411000,8.543410888671875,-0.02711319923400879,0.09113597869873047,0.034882545471191406
1760898184233098200,8.55309814453125,-0.12038815021514893,0.09884071350097656,0.005642890930175781
1760898184242785500,8.56278564453125,-0.11825156211853027,0.09234905242919922,-0.02309560775756836
1760898184252472600,8.57247265625,-0.18284761905670166,0.07206344604492188,-0.01815009117126465
1760898184262160000,8.582159912109375,-0.10974419116973877,0.08032035827636719,-0.0509490966796875
1760898184271847200,8.59184716796875,-0.10355579853057861,0.055461883544921875,0.010897159576416016
1760898184281534500,8.601534423828125,-0.225325345993042,-0.0018568038940429688,-0.03206229209899902
1760898184291221500,8.611221435546875,-0.24241173267364502,-0.01580333709716797,-0.06049990653991699
1760898184300908800,8.62090869140625,-0.2173067331314087,-0.010578155517578125,-0.08361530303955078
1760898184310596000,8.63059619140625,-0.1876816749572754,-0.03856086730957031,-0.1491858959197998
1760898184320283400,8.640283447265626,-0.18629026412963867,-0.03336811065673828,-0.12948274612426758
1760898184329970400,8.649970458984376,-0.22225677967071533,-0.06140613555908203,-0.15298748016357422
1760898184339657700,8.65965771484375,-0.18661773204803467,-0.03272056579589844,-0.19542860984802246
1760898184349345000,8.669344970703126,-0.1699312925338745,-0.0516815185546875,-0.19021320343017578
1760898184359032300,8.6790322265625,-0.21018898487091064,-0.07038211822509766,-0.20892596244812012
1760898184368719400,8.68871923828125,-0.12219095230102539,-0.037177085876464844,-0.20879030227661133
1760898184378406700,8.69840673828125,-0.06787526607513428,-0.042270660400390625,-0.17562413215637207
1760898184388094000,8.708093994140626,-0.11762046813964844,-0.04729652404785156,-0.17579102516174316
1760898184397781200,8.71778125,-0.10028278827667236,-0.033458709716796875,-0.17588090896606445
1760898184407468300,8.72746826171875,-0.0828934907913208,-0.0056514739990234375,-0.13312745094299316
1760898184417155600,8.737155517578126,-0.09405684471130371,-0.02524852752685547,-0.12362980842590332
1760898184426843000,8.7468427734375,-0.043348073959350586,0.0025730133056640625,-0.11387276649475098
1760898184436530200,8.7565302734375,-0.021286964416503906,-0.0030527114868164062,-0.09946060180664062
1760898184446217200,8.76621728515625,-0.032332420349121094,-0.017955780029296875,-0.06620979309082031
1760898184455904500,8.775904541015626,-0.014925003051757812,-0.0278472900390625,-0.04741096496582031
1760898184465591800,8.785591796875,0.011590361595153809,-0.02805614471435547,-0.009737491607666016
1760898184475279000,8.795279052734376,0.05178225040435791,-0.01881885528564453,-0.05728650093078613
1760898184484966100,8.804966064453126,0.0676499605178833,0.018568038940429688,-0.009760379791259766
1760898184494653400,8.8146533203125,0.07802450656890869,0.0035495758056640625,-0.043402910232543945
1760898184504340700,8.8243408203125,0.07863414287567139,0.0876312255859375,-0.015325307846069336
1760898184514028000,8.834028076171874,0.09803426265716553,0.11847209930419922,-0.020925045013427734
1760898184523715000,8.843715087890626,0.05544710159301758,0.1110982894897461,-0.07868194580078125
1760898184533402400,8.85340234375,0.04100596904754639,0.11324405670166016,-0.06070423126220703
1760898184543089700,8.863089599609374,0.04965865612030029,0.11543083190917969,-0.06668281555175781
1760898184552777000,8.87277685546875,0.08114194869995117,0.12707138061523438,-0.08202958106994629
1760898184562464300,8.88246435546875,0.06482815742492676,0.11969757080078125,-0.0831148624420166
1760898184572151300,8.8921513671875,0.07215011119842529,0.1076669692993164,-0.08925247192382812
1760898184581838600,8.901838623046874,0.05081033706665039,0.07695674896240234,-0.07214236259460449
1760898184591526000,8.91152587890625,0.029492855072021484,0.08905601501464844,-0.04630756378173828
1760898184601213000,8.921212890625,0.031463623046875,0.053925514221191406,-0.021161556243896484
1760898184610900200,8.930900146484374,-0.00015223026275634766,0.052398681640625,0.03170442581176758
1760898184620587500,8.94058740234375,0.006216168403625488,0.041351318359375,-0.015737056732177734
1760898184630274800,8.95027490234375,-0.011349201202392578,0.054024696350097656,0.04567742347717285
1760898184639962000,8.959962158203124,-0.01930701732635498,0.028768539428710938,0.006912708282470703
1760898184649649200,8.969649169921874,-0.0366896390914917,0.0368804931640625,0.0534212589263916
1760898184659336400,8.97933642578125,-0.025313377380371094,0.03540515899658203,0.061486244201660156
1760898184669023700,8.989023681640624,-0.018532156944274902,0.0056705474853515625,0.0694124698638916
1760898184678710800,8.998710693359374,-0.05420541763305664,-0.014123916625976562,0.09142756462097168
1760898184688398000,9.008398193359374,-0.07989907264709473,-0.042903900146484375,0.12281155586242676
1760898184698085400,9.01808544921875,-0.04837489128112793,-0.05233001708984375,0.11638951301574707
1760898184707772700,9.027772705078124,-0.04544353485107422,-0.04266929626464844,0.1340932846069336
1760898184717460000,9.0374599609375,-0.094307541847229,-0.018795013427734375,0.1712651252746582
1760898184727147000,9.04714697265625,-0.07160305976867676,-0.023441314697265625,0.12832188606262207
1760898184736834300,9.056834228515624,-0.09610319137573242,0.005057334899902344,0.16670989990234375
1760898184746521600,9.066521484375,-0.06364130973815918,-0.0044116973876953125,0.1486063003540039
1760898184756208600,9.076208740234375,-0.01270759105682373,0.019353866577148438,0.15965795516967773
1760898184765896000,9.08589599609375,0.018762707710266113,0.0004291534423828125,0.1802823543548584
1760898184775583200,9.095583251953125,0.031201958656311035,0.0054187774658203125,0.18219304084777832
1760898184785270500,9.1052705078125,0.024826526641845703,0.02919483184814453,0.21732449531555176
1760898184794957800,9.114957763671875,0.042106032371520996,0.05734729766845703,0.20506811141967773
1760898184804644900,9.124644775390625,0.04032182693481445,0.052124977111816406,0.24494695663452148
1760898184814332200,9.134332275390625,0.038635969161987305,0.03756523132324219,0.2371044158935547
1760898184824019500,9.14401953125,0.008609771728515625,0.03275489807128906,0.2578885555267334
1760898184833706800,9.153706787109375,0.002717733383178711,0.03270912170410156,0.23125576972961426
1760898184843393800,9.163393798828125,-0.007635831832885742,0.013782501220703125,0.23317790031433105
1760898184853081000,9.1730810546875,0.001369476318359375,-0.004925727844238281,0.2208268642425537
1760898184862768400,9.182768310546875,0.0010454654693603516,-0.0328216552734375,0.22732925415039062
1760898184872455700,9.19245556640625,0.019644975662231445,-0.055614471435546875,0.24764609336853027
1760898184882142700,9.202142822265625,0.03823113441467285,-0.09237480163574219,0.22460103034973145
1760898184891830000,9.211830078125,0.047414422035217285,-0.08635902404785156,0.2014315128326416
1760898184901517300,9.221517333984375,0.06607365608215332,-0.061774253845214844,0.18762588500976562
1760898184911204600,9.23120458984375,0.0468900203704834,-0.03294944763183594,0.15508508682250977
1760898184920892000,9.240891845703125,0.037552833557128906,-0.01878070831298828,0.12765026092529297
1760898184930579000,9.250578857421875,0.03809213638305664,0.018606185913085938,0.08646893501281738
1760898184940266200,9.260266357421875,0.048285841941833496,0.022380828857421875,0.031841278076171875
1760898184949953500,9.26995361328125,0.05388367176055908,0.026047706604003906,-0.0030488967895507812
1760898184959640800,9.279640869140625,0.021941304206848145,0.024947166442871094,-0.013697385787963867
1760898184969327900,9.289327880859375,0.02356410026550293,0.00508880615234375,-0.028635501861572266
1760898184979015200,9.29901513671875,0.011024951934814453,0.02327442169189453,-0.02896881103515625
1760898184988702500,9.308702392578125,0.007981061935424805,0.060092926025390625,-0.019538164138793945
1760898184998389800,9.3183896484375,0.014188408851623535,0.054032325744628906,-0.0477299690246582
1760898185008076800,9.328076904296875,0.019966959953308105,0.04344940185546875,-0.0659322738647461
1760898185017764000,9.33776416015625,0.020720720291137695,0.047150611877441406,-0.1075444221496582
1760898185027451400,9.347451416015625,0.035254478454589844,0.05087471008300781,-0.1060018539428711
1760898185037138700,9.357138671875,0.030454635620117188,0.054648399353027344,-0.11834859848022461
1760898185046825700,9.36682568359375,0.030058622360229492,0.03494453430175781,-0.12560319900512695
1760898185056513000,9.376512939453125,0.024581432342529297,0.015738487243652344,-0.08998656272888184
1760898185066200300,9.386200439453125,-0.01436758041381836,-0.007625579833984375,-0.08745074272155762
1760898185075887600,9.3958876953125,-0.005932927131652832,-0.0163116455078125,-0.06099271774291992
1760898185085575000,9.405574951171875,0.0066852569580078125,-0.015269279479980469,-0.05340170860290527
1760898185095262000,9.415261962890625,-0.000025033950805664062,-0.014072418212890625,-0.031365156173706055
1760898185104949200,9.42494921875,0.012013673782348633,-0.003387451171875,-0.0047528743743896484
1760898185114636500,9.434636474609375,0.019010066986083984,-0.0069789886474609375,-0.006837368011474609
1760898185134011000,9.454010986328125,0.037102580070495605,-0.032965660095214844,0.0074253082275390625
1760898185143698200,9.4636982421875,0.039118051528930664,-0.026752471923828125,0.02365851402282715
1760898185153385500,9.473385498046875,0.036504149436950684,-0.044219970703125,0.030102014541625977
1760898185163072800,9.48307275390625,0.02489948272705078,-0.03796958923339844,0.02688145637512207
1760898185172759800,9.492759765625,0.03737330436706543,-0.04602622985839844,0.014214277267456055
1760898185182447000,9.502447021484375,0.017032742500305176,-0.044602394104003906,0.025255203247070312
1760898185192134400,9.512134521484375,0.011483192443847656,-0.03385734558105469,0.03607988357543945
1760898185201821700,9.52182177734375,0.025096774101257324,-0.028093338012695312,0.022997379302978516
1760898185211509000,9.531509033203125,0.015063285827636719,-0.017797470092773438,0.028739452362060547
1760898185221196000,9.541196044921875,0.019640684127807617,0.025182723999023438,0.015454530715942383
1760898185230883300,9.55088330078125,0.05250716209411621,0.02496814727783203,0.011420249938964844
1760898185240570600,9.560570556640625,0.06142628192901611,0.057600975036621094,-0.016349315643310547
1760898185250258000,9.5702578125,0.05156135559082031,0.03785991668701172,-0.03437185287475586
1760898185259945000,9.579945068359375,0.046567440032958984,0.018446922302246094,-0.03326988220214844
1760898185269632300,9.58963232421875,0.041657090187072754,-0.024170875549316406,-0.027480125427246094
1760898185279319600,9.599319580078125,0.02725076675415039,-0.03314781188964844,-0.040757179260253906
1760898185289006800,9.6090068359375,-0.005905032157897949,-0.04663276672363281,-0.03962421417236328
1760898185298694100,9.618694091796876,-0.010410070419311523,-0.055169105529785156,-0.06205868721008301
1760898185308381200,9.628381103515625,-0.0009176731109619141,-0.058837890625,-0.07476472854614258
1760898185318068500,9.638068359375,-0.015249371528625488,-0.03886699676513672,-0.07305169105529785
1760898185327755800,9.647755859375,-0.010822057723999023,-0.04269218444824219,-0.07131528854370117
1760898185337443000,9.657443115234376,0.0074242353439331055,-0.060581207275390625,-0.08861517906188965
1760898185347130000,9.667130126953126,0.006505727767944336,-0.031131744384765625,-0.08219218254089355
1760898185356817400,9.6768173828125,0.005535721778869629,-0.020986557006835938,-0.07117581367492676
1760898185366504700,9.686504638671876,0.000005125999450683594,-0.0016088485717773438,-0.07440924644470215
1760898185376192000,9.69619189453125,0.008763790130615234,-0.010806083679199219,-0.09643125534057617
1760898185385879300,9.70587939453125,-0.010838150978088379,0.008363723754882812,-0.10402512550354004
1760898185395566300,9.71556640625,-0.020573019981384277,0.027177810668945312,-0.08802032470703125
1760898185405253600,9.725253662109376,-0.03488969802856445,0.03148365020751953,-0.1008291244506836
1760898185414941000,9.73494091796875,-0.04411351680755615,0.02151203155517578,-0.08541202545166016
1760898185424628200,9.744628173828126,-0.03413259983062744,0.0021905899047851562,-0.10343432426452637
1760898185434315300,9.754315185546876,-0.05240511894226074,0.001956939697265625,-0.11656451225280762
1760898185444002600,9.76400244140625,-0.03719532489776611,-0.012417793273925781,-0.14354228973388672
1760898185453689900,9.77368994140625,-0.050405263900756836,-0.02656269073486328,-0.15593886375427246
1760898185463377200,9.783377197265626,-0.05868971347808838,-0.031029701232910156,-0.13037323951721191
1760898185473064400,9.793064453125,-0.05758237838745117,-0.030618667602539062,-0.13792014122009277
1760898185482751500,9.80275146484375,-0.0611799955368042,-0.011409759521484375,-0.1359860897064209
1760898185492438800,9.812438720703126,-0.041100263595581055,0.002685546875,-0.13434386253356934
1760898185502126000,9.8221259765625,-0.03557229042053223,-0.011676788330078125,-0.1327528953552246
1760898185511813400,9.8318134765625,-0.030196309089660645,-0.016389846801757812,-0.11240220069885254
1760898185521500400,9.84150048828125,-0.010822415351867676,-0.03040599822998047,-0.0923011302947998
1760898185531187700,9.851187744140624,-0.015281915664672852,-0.030089378356933594,-0.049062490463256836
1760898185540875000,9.860875,-0.010236024856567383,-0.02976703643798828,-0.04413938522338867
1760898185550562300,9.870562255859374,-0.019500255584716797,-0.038753509521484375,-0.010738134384155273
1760898185560249600,9.88024951171875,-0.00961923599243164,-0.042845726013183594,0.027067184448242188
1760898185569936600,9.8899365234375,0.009538650512695312,-0.05622100830078125,0.05506587028503418
1760898185579624000,9.8996240234375,0.019005417823791504,-0.022176742553710938,0.08312559127807617
1760898185589311200,9.909311279296874,0.047177791595458984,-0.030975341796875,0.09691143035888672
1760898185598998500,9.91899853515625,0.05146992206573486,0.007431983947753906,0.10583662986755371
1760898185608685600,9.928685546875,0.04612135887145996,-0.01591014862060547,0.14299440383911133
1760898185618372900,9.938372802734374,0.08320605754852295,0.017584800720214844,0.1418013572692871
1760898185628060200,9.94806005859375,0.0726238489151001,0.03162860870361328,0.15920233726501465
1760898185637747500,9.95774755859375,0.043444156646728516,0.021800994873046875,0.11947989463806152
1760898185647434800,9.967434814453124,0.03822147846221924,0.016724586486816406,0.11759519577026367
1760898185657121800,9.977121826171874,0.04266548156738281,0.011623382568359375,0.10604286193847656
1760898185666809000,9.98680908203125,0.047232747077941895,0.02067852020263672,0.056984901428222656
1760898185676496400,9.996496337890624,0.03766524791717529,0.03893470764160156,0.032094717025756836
1760898185686183700,10.00618359375,0.028316617012023926,0.028593063354492188,0.030970335006713867
1760898185695870700,10.01587060546875,0.038085103034973145,0.046611785888671875,0.010951995849609375
1760898185705558000,10.02555810546875,0.03349459171295166,0.04078865051269531,0.0005891323089599609
1760898185715245300,10.035245361328125,0.042714476585388184,0.06806087493896484,-0.009638547897338867
1760898185724932600,10.0449326171875,0.04691720008850098,0.02426910400390625,-0.02928638458251953
1760898185734620000,10.054619873046875,0.046206116676330566,0.014138221740722656,-0.029911041259765625
1760898185744307000,10.064306884765625,0.021830439567565918,-0.005236625671386719,-0.044738054275512695
1760898185753994200,10.073994140625,-0.011638760566711426,-0.014904022216796875,-0.045365333557128906
1760898185763681500,10.083681640625,-0.03521740436553955,-0.024362564086914062,-0.04114890098571777
1760898185773368800,10.093368896484375,-0.03021717071533203,-0.019469261169433594,-0.060277700424194336
1760898185783056100,10.10305615234375,-0.03011453151702881,-0.024018287658691406,-0.06486105918884277
1760898185792743200,10.1127431640625,-0.02514064311981201,-0.01910114288330078,-0.06462454795837402
1760898185802430500,10.122430419921875,-0.053112030029296875,-0.018960952758789062,-0.06900858879089355
1760898185812117800,10.13211767578125,-0.05249953269958496,-0.009410858154296875,-0.06868910789489746
1760898185821805000,10.14180517578125,-0.04719126224517822,-0.00946044921875,-0.06848335266113281
1760898185831492000,10.1514921875,-0.05645310878753662,-0.00006008148193359375,-0.08249354362487793
1760898185841179400,10.161179443359375,-0.04656982421875,-0.009716987609863281,-0.10115456581115723
1760898185850866700,10.17086669921875,-0.02242863178253174,0.032482147216796875,-0.07249712944030762
1760898185860554000,10.180553955078125,-0.06925785541534424,0.04563713073730469,-0.06822943687438965
1760898185870241300,10.1902412109375,-0.10606193542480469,0.02559185028076172,-0.10193419456481934
1760898185879928600,10.199928466796875,-0.06658518314361572,0.024625778198242188,-0.07865309715270996
1760898185889615600,10.20961572265625,-0.10280501842498779,0.0047740936279296875,-0.06999993324279785
1760898185899303000,10.219302978515625,-0.1479705572128296,-0.04304981231689453,-0.04301142692565918
1760898185908990200,10.228990234375,-0.13578617572784424,0.0039730072021484375,-0.0401768684387207
1760898185918677500,10.238677490234375,-0.14723730087280273,-0.011003494262695312,-0.042180776596069336
1760898185928364500,10.248364501953125,-0.17273545265197754,-0.04926109313964844,-0.058354854583740234
1760898185938051800,10.2580517578125,-0.1935281753540039,-0.04922771453857422,-0.04156899452209473
1760898185947739100,10.2677392578125,-0.2237619161605835,-0.06794357299804688,-0.053261518478393555
1760898185957426400,10.277426513671875,-0.2585235834121704,-0.06752586364746094,-0.09321212768554688
1760898185967113700,10.28711376953125,-0.2599233388900757,-0.13298892974853516,-0.0855095386505127
1760898185976800800,10.29680078125,-0.28939759731292725,-0.16449642181396484,-0.09225153923034668
1760898185986488000,10.306488037109375,-0.3035627603530884,-0.20978641510009766,-0.15090036392211914
1760898185996175400,10.31617529296875,-0.3024362325668335,-0.2310619354248047,-0.2042834758758545
1760898186005862700,10.325862548828125,-0.31919336318969727,-0.20989131927490234,-0.2571406364440918
1760898186015549700,10.3355498046875,-0.27326977252960205,-0.15176773071289062,-0.3472714424133301
1760898186025237000,10.345237060546875,-0.24052107334136963,-0.015016555786132812,-0.42221736907958984
1760898186034924300,10.35492431640625,-0.19712543487548828,0.062493324279785156,-0.5343019962310791
1760898186044611600,10.364611572265625,-0.1531916856765747,0.13838481903076172,-0.5885143280029297
1760898186054299000,10.374298828125,-0.1281641721725464,0.17995929718017578,-0.5948121547698975
1760898186063986200,10.383986083984375,-0.10383367538452148,0.15039539337158203,-0.5912604331970215
1760898186073673200,10.393673095703125,-0.09468734264373779,0.1498861312866211,-0.5540468692779541
1760898186083360500,10.403360595703125,-0.08639645576477051,0.10262489318847656,-0.49796366691589355
1760898186093047800,10.4130478515625,-0.08377957344055176,0.061107635498046875,-0.4188692569732666
1760898186102735000,10.422735107421875,-0.08694887161254883,0.02985382080078125,-0.3646540641784668
1760898186112422100,10.432422119140625,-0.08675241470336914,0.037009239196777344,-0.3065776824951172
1760898186122109400,10.442109375,-0.04055798053741455,0.08657169342041016,-0.2588620185852051
1760898186131796700,10.451796630859375,0.018500208854675293,0.09783744812011719,-0.23510956764221191
1760898186141484000,10.461484130859375,0.08568990230560303,0.12308311462402344,-0.21644163131713867
1760898186151171300,10.47117138671875,0.137395977973938,0.08206367492675781,-0.18398547172546387
1760898186160858600,10.480858642578125,0.12214171886444092,0.02287769317626953,-0.18523120880126953
1760898186170545700,10.490545654296875,0.1446690559387207,-0.011770248413085938,-0.12526965141296387
1760898186180233000,10.50023291015625,0.1669154167175293,-0.008124351501464844,-0.028351306915283203
1760898186189920300,10.509920166015625,0.1369190216064453,0.014394760131835938,0.015524864196777344
1760898186199607600,10.519607666015625,0.08317971229553223,0.06488227844238281,0.01629471778869629
1760898186209294600,10.529294677734375,0.014911532402038574,0.0770425796508789,0.06863880157470703
1760898186218982000,10.53898193359375,-0.049253106117248535,0.07971000671386719,0.08658409118652344
1760898186228669200,10.548669189453125,-0.07132995128631592,0.1247396469116211,0.12715721130371094
1760898186238356500,10.5583564453125,-0.009001493453979492,0.17374324798583984,0.11493468284606934
1760898186248043800,10.568043701171876,0.052429795265197754,0.2312917709350586,0.0980832576751709
1760898186257731000,10.57773095703125,0.08521044254302979,0.2830772399902344,0.10029888153076172
1760898186267418000,10.587418212890626,-0.004950404167175293,0.2680988311767578,0.16824102401733398
1760898186277105400,10.59710546875,-0.03696739673614502,0.24855613708496094,0.23941826820373535
1760898186286792700,10.606792724609376,-0.10099565982818604,0.23385047912597656,0.304171085357666
1760898186296480000,10.61647998046875,-0.197127103805542,0.24756336212158203,0.37684154510498047
1760898186306167000,10.6261669921875,-0.29725849628448486,0.26101207733154297,0.3487381935119629
1760898186315854300,10.635854248046876,-0.34003615379333496,0.2838144302368164,0.26003122329711914
1760898186325541600,10.645541748046876,-0.16988861560821533,0.33002376556396484,0.18817710876464844
1760898186335229000,10.65522900390625,-0.08720111846923828,0.2676124572753906,-0.036240577697753906
1760898186344916200,10.664916259765626,-0.11524784564971924,0.1833324432373047,-0.24578642845153809
1760898186354603500,10.674603515625,-0.14468562602996826,0.06821918487548828,-0.4502687454223633
1760898186364290600,10.68429052734375,-0.06694674491882324,0.00750732421875,-0.5506963729858398
1760898186373977900,10.693977783203126,0.013064861297607422,-0.09875011444091797,-0.7141382694244385
1760898186383665200,10.7036650390625,0.015270590782165527,-0.33491039276123047,-0.9647319316864014
1760898186393352400,10.7133525390625,0.16865527629852295,-0.4353904724121094,-1.0461859703063965
1760898186403039700,10.723039794921876,0.3117692470550537,-0.6377086639404297,-0.9558017253875732
1760898186412726800,10.732726806640626,0.0333409309387207,-0.7657804489135742,-1.1061336994171143
1760898186422414000,10.7424140625,0.23159074783325195,-0.7030344009399414,-0.8420300483703613
1760898186432101400,10.752101318359376,0.1775195598602295,-0.7394790649414062,-0.7443647384643555
1760898186441788700,10.76178857421875,-0.032203078269958496,-0.7931365966796875,-0.5796966552734375
1760898186451476000,10.77147607421875,-0.2302922010421753,-0.9388704299926758,-0.5369358062744141
1760898186461163300,10.781163330078124,-0.2169795036315918,-0.8034639358520508,-0.42945003509521484
1760898186470850300,10.790850341796874,-0.2430880069732666,-0.7171602249145508,-0.43892741203308105
1760898186480537600,10.80053759765625,-0.47230029106140137,-0.7032003402709961,-0.3533353805541992
1760898186490225000,10.810224853515624,-0.7224366664886475,-0.7136325836181641,-0.20829415321350098
1760898186499912200,10.819912109375,-0.8467833995819092,-0.8519096374511719,-0.27857065200805664
1760898186509599200,10.82959912109375,-0.6798700094223022,-1.0646533966064453,-0.2783207893371582
1760898186519286500,10.83928662109375,-0.38388240337371826,-1.1390600204467773,-0.26443934440612793
1760898186528973800,10.848973876953124,-0.26729679107666016,-0.9452533721923828,-0.19858241081237793
1760898186538661000,10.8586611328125,-0.3812776803970337,-0.32250118255615234,-0.22744059562683105
1760898186548348400,10.868348388671874,-0.23630595207214355,0.42670440673828125,-0.25070714950561523
1760898186558035700,10.87803564453125,-0.0035818815231323242,0.7944450378417969,-0.49887847900390625
1760898186567722800,10.88772265625,0.29062962532043457,0.9908065795898438,-0.510350227355957
1760898186577410000,10.89741015625,0.4732389450073242,1.293294906616211,-0.219268798828125
1760898186587097300,10.907097412109374,0.5708940029144287,1.788055419921875,0.013570070266723633
1760898186596784600,10.91678466796875,1.0441551208496094,2.308574676513672,0.7517960071563721
1760898186606472000,10.926471923828124,0.9688924551010132,2.4302682876586914,1.4104853868484497
1760898186616159000,10.936158935546874,0.23026680946350098,1.9448966979980469,1.86328125
1760898186625846300,10.94584619140625,-0.33636170625686646,1.3994665145874023,2.059141159057617
1760898186635533600,10.955533447265625,-0.8185582756996155,0.6129255294799805,1.6763224601745605
1760898186645220900,10.965220947265625,-0.9818838238716125,0.13543224334716797,1.489165186882019
1760898186654908200,10.974908203125,-0.7248536348342896,-0.1331462860107422,1.4650108814239502
1760898186664595200,10.98459521484375,-0.2684020400047302,-0.15056896209716797,1.466194987297058
1760898186674282500,10.994282470703125,-0.028511762619018555,-0.7024288177490234,0.0193936824798584
1760898186683969800,11.0039697265625,0.9011220932006836,-0.6747360229492188,-0.6544950008392334
1760898186693657000,11.013656982421875,1.7399481534957886,-0.525334358215332,-0.007085561752319336
1760898186703344400,11.023344482421875,0.961627185344696,-0.8269224166870117,0.4040076732635498
1760898186713031700,11.03303173828125,-0.2588598430156708,-0.7912168502807617,1.0276421308517456
1760898186722718700,11.04271875,-0.89589524269104,-0.5782413482666016,1.155760407447815
1760898186732406000,11.052406005859375,-0.42616668343544006,-0.3093423843383789,1.1877166032791138
1760898186742093300,11.06209326171875,0.3263883590698242,0.033466339111328125,1.0510287284851074
1760898186751780600,11.071780517578125,0.801224946975708,0.2733879089355469,0.8566422462463379
1760898186761468000,11.081468017578125,1.0077545642852783,0.6266136169433594,1.209894061088562
1760898186771155000,11.091155029296875,1.0096670389175415,0.6013097763061523,1.0062564611434937
1760898186780842200,11.10084228515625,0.8748812675476074,0.3369407653808594,0.7048604488372803
1760898186790529500,11.110529541015625,0.8451838493347168,0.025873184204101562,0.819555401802063
1760898186800216800,11.120216796875,0.7044748067855835,-0.17391490936279297,0.7681711912155151
1760898186809904000,11.129904052734375,0.5147387981414795,-0.2963266372680664,0.5313622951507568
1760898186819591400,11.13959130859375,0.3253321349620819,-0.241546630859375,0.4336559772491455
1760898186829278700,11.14927880859375,0.2537669539451599,-0.08641624450683594,0.427415132522583
1760898186838965800,11.1589658203125,0.19188430905342102,0.04940509796142578,0.5172346830368042
1760898186848653000,11.168653076171875,0.0688534677028656,0.04658794403076172,0.43075835704803467
1760898186858340400,11.17834033203125,0.037950366735458374,0.06777572631835938,0.46440958976745605
1760898186868027600,11.188027587890625,0.05053555965423584,0.060227394104003906,0.4022982120513916
1760898186877715000,11.19771484375,0.22567641735076904,0.1528644561767578,0.29223108291625977
1760898186887402000,11.207402099609375,0.5152655839920044,0.259613037109375,0.2827022075653076
1760898186897089300,11.21708935546875,0.7171676158905029,0.21825408935546875,0.15896964073181152
1760898186906776600,11.226776611328125,0.8099191188812256,0.18213653564453125,0.13672757148742676
1760898186916463900,11.2364638671875,0.7475787401199341,0.09873676300048828,0.029221773147583008
1760898186926151200,11.246151123046875,0.7492448687553406,0.035271644592285156,0.009485006332397461
1760898186935838500,11.25583837890625,0.8831891417503357,0.010969161987304688,0.1879730224609375
1760898186945525500,11.265525390625,1.0082677602767944,0.00162506103515625,0.24839448928833008
1760898186955212800,11.275212890625,0.8912094831466675,-0.007161140441894531,0.47731149196624756
1760898186964900000,11.284900146484375,0.6278223395347595,-0.04871177673339844,0.7313345670700073
1760898186974587400,11.29458740234375,0.43004655838012695,-0.00392913818359375,0.894700288772583
1760898186984274700,11.304274658203125,0.32432836294174194,0.18331336975097656,0.8974533081054688
1760898186993962000,11.3139619140625,0.1744837462902069,0.39742088317871094,0.9764877557754517
1760898187003649000,11.32364892578125,0.0640101432800293,0.5235261917114258,1.016600251197815
1760898187013336300,11.33333642578125,-0.0077363550662994385,0.6195058822631836,0.9476972818374634
1760898187023023600,11.343023681640625,-0.1387653648853302,0.6239042282104492,0.8242200613021851
1760898187032711000,11.3527109375,-0.12610509991645813,0.43218040466308594,0.5990604162216187
1760898187042398200,11.362398193359375,-0.019521325826644897,0.1645336151123047,0.3929630517959595
1760898187052085500,11.37208544921875,0.16085511445999146,-0.09260082244873047,0.16405034065246582
1760898187061772500,11.3817724609375,0.3720325231552124,-0.31029319763183594,-0.08626890182495117
1760898187071459800,11.3914599609375,0.4614792466163635,-0.47388458251953125,-0.16504979133605957
1760898187081147100,11.401147216796875,0.5065709352493286,-0.5164384841918945,-0.24334216117858887
1760898187090834400,11.41083447265625,0.6237476468086243,-0.4573955535888672,-0.28746962547302246
1760898187100521700,11.420521728515626,0.6658183932304382,-0.34490203857421875,-0.28835511207580566
1760898187110209000,11.430208984375,0.4506944417953491,-0.24628257751464844,-0.25740814208984375
1760898187119896000,11.43989599609375,0.045002281665802,-0.09990119934082031,-0.1539325714111328
1760898187129583400,11.449583251953126,-0.2783406972885132,0.017330169677734375,0.07751774787902832
1760898187139270700,11.459270751953126,-0.4079825282096863,0.12888622283935547,0.325372576713562
1760898187148958000,11.4689580078125,-0.3715204894542694,0.23911571502685547,0.41634607315063477
1760898187158645200,11.478645263671876,-0.12593013048171997,0.32871055603027344,0.3978332281112671
1760898187168332500,11.48833251953125,0.15532952547073364,0.37876224517822266,0.33719396591186523
1760898187178019600,11.49801953125,0.28903305530548096,0.37483978271484375,0.2322632074356079
1760898187187707000,11.507706787109376,0.37697362899780273,0.3001518249511719,0.11349701881408691
1760898187197394200,11.517394287109376,0.4755393862724304,0.18437480926513672,-0.027415990829467773
1760898187207081500,11.52708154296875,0.5368611812591553,0.06618595123291016,-0.005298137664794922
1760898187216768800,11.536768798828126,0.47689610719680786,-0.15772533416748047,0.013200759887695312
1760898187226456000,11.5464560546875,0.4452822208404541,-0.31646728515625,-0.11844873428344727
1760898187236143400,11.556143310546876,0.4489068388938904,-0.24662399291992188,-0.10599112510681152
1760898187245830400,11.565830322265626,0.3285316824913025,-0.1026144027709961,-0.08319401741027832
1760898187255517700,11.575517578125,0.17115724086761475,0.08121681213378906,-0.06495404243469238
1760898187265205000,11.585205078125,0.11833715438842773,0.20511627197265625,0.07932710647583008
1760898187274892300,11.594892333984374,0.11153310537338257,0.30750083923339844,0.32286882400512695
1760898187284579600,11.60457958984375,0.16399073600769043,0.44506072998046875,0.376217246055603
1760898187294267000,11.614266845703124,0.2549697756767273,0.5655393600463867,0.3319673538208008
1760898187303954000,11.623953857421874,0.23997223377227783,0.5942535400390625,0.3851813077926636
1760898187313641200,11.63364111328125,0.12724202871322632,0.5611438751220703,0.41630005836486816
1760898187323328500,11.64332861328125,-0.017906248569488525,0.4155721664428711,0.4488104581832886
1760898187333015800,11.653015869140624,-0.23828521370887756,0.3617134094238281,0.26545703411102295
1760898187342703000,11.662703125,-0.4006158113479614,0.45907020568847656,-0.10744214057922363
1760898187352390400,11.672390380859374,-0.4477415680885315,0.5449485778808594,-0.46482014656066895
1760898187362077400,11.682077392578124,-0.13726389408111572,0.6100959777832031,-0.645600438117981
1760898187371764700,11.6917646484375,0.4717969298362732,0.35384654998779297,-0.584732174873352
1760898187381452000,11.7014521484375,0.7916635870933533,0.04542255401611328,-0.2654310464859009
1760898187391139300,11.711139404296874,1.0116738080978394,-0.16381168365478516,0.0915229320526123
1760898187400826600,11.72082666015625,0.9445899128913879,-0.28007984161376953,0.4812685251235962
1760898187410514000,11.730513916015624,0.8340793251991272,-0.11161041259765625,1.0837006568908691
1760898187420201200,11.740201171875,1.0104146003723145,-0.13123035430908203,1.4432742595672607
1760898187429888500,11.749888427734374,0.5683803558349609,0.06458473205566406,1.7317471504211426
1760898187439575600,11.759575439453124,0.32438552379608154,0.12254714965820312,2.414632797241211
1760898187449262800,11.769262939453125,0.3019678592681885,0.31487083435058594,2.520702362060547
1760898187458950100,11.7789501953125,0.09891760349273682,0.4309053421020508,2.326188325881958
1760898187468637400,11.788637451171875,-0.1362074613571167,0.3801450729370117,1.9034496545791626
1760898187478324700,11.79832470703125,-0.13843852281570435,0.5449943542480469,1.4699759483337402
1760898187488012000,11.808011962890625,-0.21728473901748657,0.3854532241821289,1.1364082098007202
1760898187497699300,11.81769921875,-0.3522828221321106,0.16943931579589844,0.5917346477508545
1760898187507386400,11.827386474609375,-0.34054362773895264,0.001949310302734375,0.25252223014831543
1760898187517073700,11.83707373046875,-0.3247022032737732,-0.18876171112060547,0.06178784370422363
1760898187526761000,11.846760986328125,-0.32476621866226196,-0.31665515899658203,-0.05732309818267822
1760898187536448300,11.8564482421875,-0.3363187909126282,-0.4201650619506836,-0.1392141580581665
1760898187546135600,11.866135498046875,-0.20201963186264038,-0.3801126480102539,-0.04637408256530762
1760898187555822800,11.87582275390625,-0.061682820320129395,-0.2542104721069336,0.11922895908355713
1760898187565510100,11.88551025390625,0.01633310317993164,-0.10466957092285156,0.4044192433357239
1760898187575197200,11.895197265625,0.015090465545654297,-0.026737213134765625,0.689328670501709
1760898187584884500,11.904884521484375,0.017960190773010254,0.018228530883789062,1.0452556610107422
1760898187594571800,11.91457177734375,0.1669999361038208,0.13531112670898438,1.2225929498672485
1760898187604259000,11.924259033203125,0.3478226661682129,0.15232563018798828,1.3259328603744507
1760898187613946400,11.9339462890625,0.5935615301132202,0.06941604614257812,1.378071904182434
1760898187623633700,11.943633544921875,0.8159044981002808,0.04471015930175781,1.574880599975586
1760898187633321000,11.953321044921875,0.6757615804672241,0.05501079559326172,1.8255655765533447
1760898187643008300,11.96300830078125,0.505029559135437,-0.1044626235961914,1.976496934890747
1760898187652695300,11.9726953125,0.6003308296203613,-0.21325969696044922,2.0098330974578857
1760898187662382600,11.982382568359375,0.8163901567459106,0.04340934753417969,1.672391414642334
1760898187672070000,11.99206982421875,1.0582144260406494,0.16278839111328125,0.9071954488754272
1760898187681757200,12.001757080078125,1.223616123199463,0.8608531951904297,0.8520889282226562
1760898187691444500,12.011444580078125,0.5095434188842773,0.8799238204956055,0.31146496534347534
1760898187701131800,12.0211318359375,-0.16186058521270752,0.7840509414672852,-0.06972992420196533
1760898187710819000,12.030819091796875,-0.4285869598388672,0.43843650817871094,-0.4327901601791382
1760898187720506400,12.04050634765625,-0.3652515411376953,0.6633710861206055,-0.7244926691055298
1760898187730193400,12.050193359375,-0.4029865264892578,0.7076301574707031,-0.8608872890472412
1760898187739880700,12.059880615234375,-0.35107100009918213,0.3570690155029297,-0.9737256765365601
1760898187749568000,12.069568115234375,-0.46504855155944824,-0.10498237609863281,-0.9987004995346069
1760898187759255300,12.07925537109375,-0.7829294204711914,-0.5148239135742188,-0.9264873266220093
1760898187768942600,12.088942626953125,-0.6562843322753906,-0.3852262496948242,-0.4838845729827881
1760898187778630000,12.0986298828125,-0.019840240478515625,-0.08978748321533203,-0.21620386838912964
1760898187788317200,12.108317138671875,0.31916332244873047,0.21927261352539062,-0.1614069938659668
1760898187798004200,12.118004150390625,0.6780781745910645,0.9726343154907227,0.03258979320526123
1760898187807691500,12.12769140625,0.7786619663238525,1.1576595306396484,-0.004928171634674072
1760898187817378800,12.13737890625,0.8025262355804443,1.377471923828125,0.17687565088272095
1760898187827066000,12.147066162109375,0.35672664642333984,1.3458213806152344,0.19354039430618286
1760898187836753400,12.15675341796875,-0.37397146224975586,1.1258935928344727,0.0378340482711792
1760898187846440700,12.166440673828125,-0.8529648780822754,1.1955242156982422,0.08077752590179443
1760898187856128000,12.1761279296875,-1.0015103816986084,1.0042991638183594,-0.2751011848449707
1760898187865815300,12.185815185546875,-1.1289368867874146,0.6954822540283203,-0.8597915768623352
1760898187875502600,12.195502685546876,-1.5156699419021606,0.3024444580078125,-1.2677764892578125
1760898187885189600,12.205189697265626,-1.4559818506240845,0.4833984375,-0.9094827175140381
1760898187894877000,12.214876953125,-1.3508224487304688,0.10493087768554688,-1.6106233596801758
1760898187904564200,12.224564208984376,-1.295820951461792,0.03238201141357422,-1.862362027168274
1760898187914251500,12.23425146484375,-1.333207607269287,-0.2412281036376953,-2.3069674968719482
1760898187923938800,12.243938720703126,-0.7946085929870605,-0.010006904602050781,-1.4326287508010864
1760898187933626000,12.253626220703126,-0.033080339431762695,-0.7365398406982422,-1.2467824220657349
1760898187943313400,12.2633134765625,0.17551207542419434,-1.0382976531982422,-0.6958441734313965
1760898187953000700,12.273000732421876,0.3760945796966553,-1.1739931106567383,-0.1711900681257248
1760898187962688000,12.28268798828125,0.4162781238555908,-1.2206087112426758,0.6433606147766113
