time,seconds_elapsed,z,y,x
1760898175921476400,0.241476318359375,-1.4370594024658203,-1.2997674942016602,1.4734058380126953
1760898175931163600,0.25116357421875,-1.3283255100250244,-1.5050181150436401,1.4856231212615967
1760898175940850700,0.2608505859375,-1.2159262895584106,-1.7542508840560913,1.479514479637146
1760898175950538000,0.2705380859375,-1.10230553150177,-1.5807653665542603,1.380554437637329
1760898175960225000,0.28022509765625,-1.0118975639343262,-1.1250602006912231,1.1850776672363281
1760898175969912300,0.289912353515625,-0.9104939699172974,-0.9980003237724304,0.9798271059989929
1760898175979599400,0.299599365234375,-0.8335250020027161,-0.7866411209106445,0.5522217750549316
1760898175989286700,0.30928662109375,-0.7516691088676453,-0.539851725101471,0.14660754799842834
1760898175998973700,0.3189736328125,-0.6771436333656311,-0.15500694513320923,-0.2712239623069763
1760898176008661000,0.328660888671875,-0.6783653497695923,0.22983787953853607,-0.7330377101898193
1760898176018348300,0.338348388671875,-0.6661480665206909,0.388662725687027,-1.1423171758651733
1760898176028035300,0.348035400390625,-0.6172788739204407,0.3776671588420868,-1.479514479637146
1760898176037722600,0.35772265625,-0.5329795479774475,0.19685117900371552,-1.7177517414093018
1760898176047409700,0.36740966796875,-0.4364628791809082,-0.15867212414741516,-1.8619158267974854
1760898176057097000,0.377096923828125,-0.324063777923584,-0.660802960395813,-1.925445795059204
1760898176066784000,0.386783935546875,-0.1957821547985077,-1.1946988105773926,-1.9034546613693237
1760898176076471300,0.39647119140625,-0.1127045527100563,-1.1861467361450195,-1.6041308641433716
1760898176086158300,0.406158447265625,-0.22510367631912231,-0.514195442199707,-0.8442151546478271
1760898176095845600,0.415845703125,-0.5073232054710388,-0.3578140437602997,0.013439024798572063
1760898176105533000,0.425532958984375,-0.6918043494224548,-0.4689914286136627,0.7611374855041504
1760898176115220000,0.435219970703125,-0.6759218573570251,-0.47754353284835815,1.186299443244934
1760898176124907300,0.4449072265625,-0.5757400393486023,-0.3052796721458435,1.2412772178649902
1760898176134594300,0.45459423828125,-0.5390881896018982,-0.03527744114398956,1.0140355825424194
1760898176144281600,0.464281494140625,-0.6319395899772644,-0.06582067906856537,0.6682860851287842
1760898176153968600,0.47396875,-0.8042035102844238,-0.13179408013820648,0.3298669755458832
1760898176163656000,0.483656005859375,-0.8799507021903992,0.030695954337716103,0.08552107214927673
1760898176173343200,0.49334326171875,-0.9288198947906494,0.11621702462434769,-0.11972949653863907
1760898176183030300,0.5030302734375,-1.0094540119171143,-0.01206457894295454,-0.3127627670764923
1760898176192717600,0.512717529296875,-1.099861979484558,-0.12935061752796173,-0.4263836145401001
1760898176202404600,0.522404541015625,-1.1658353805541992,-0.15500694513320923,-0.43004879355430603
1760898176212092000,0.532091796875,-1.1976003646850586,-0.2857320010662079,-0.360410213470459
1760898176221779000,0.541779052734375,-1.181717872619629,-0.5484038591384888,-0.26022839546203613
1760898176231466200,0.55146630859375,-1.1414008140563965,-0.7841976881027222,-0.16615521907806396
1760898176241153300,0.5611533203125,-1.1475094556808472,-0.9198096394538879,-0.14538581669330597
1760898176250840600,0.570840576171875,-1.1585050821304321,-0.8428406715393066,-0.20158538222312927
1760898176260527900,0.58052783203125,-1.1328487396240234,-0.6571378111839294,-0.2968802750110626
1760898176270215000,0.59021484375,-1.06443190574646,-0.41645705699920654,-0.5338957905769348
1760898176279902200,0.599902099609375,-0.981354296207428,-0.24297146499156952,-0.7049379348754883
1760898176289589200,0.60958935546875,-0.9275981783866882,-0.3199404180049896,-0.740368127822876
1760898176299276500,0.619276611328125,-0.9056070446968079,-0.5227475166320801,-0.7134900689125061
1760898176308963800,0.6289638671875,-0.8994984030723572,-0.6473639607429504,-0.6255255341529846
1760898176318651000,0.63865087890625,-0.9019418358802795,-0.6864593029022217,-0.5143481492996216
1760898176328338200,0.648338134765625,-0.9373720288276672,-0.5984947681427002,-0.3836230933666229
1760898176338025200,0.658025146484375,-1.054658055305481,-0.5264127254486084,-0.27000224590301514
1760898176347712500,0.66771240234375,-1.219591498374939,-0.393244206905365,-0.2211330533027649
1760898176357399600,0.677399658203125,-1.3918553590774536,-0.19898919761180878,-0.20769402384757996
1760898176367086800,0.6870869140625,-1.5580105781555176,0.03558287397027016,-0.20280711352825165
1760898176376774100,0.696774169921875,-1.6862921714782715,0.2652680277824402,-0.21502439677715302
1760898176386461200,0.706461181640625,-1.7681480646133423,0.43631017208099365,-0.2406807243824005
1760898176396148500,0.7161484375,-1.8157955408096313,0.5645917654037476,-0.25900667905807495
1760898176405835500,0.72583544921875,-1.8573343753814697,0.6501128673553467,-0.31154105067253113
1760898176415522800,0.735522705078125,-1.9159773588180542,0.6892082095146179,-0.38240134716033936
1760898176425209900,0.7452099609375,-2.017380952835083,0.7319687008857727,-0.4312705397605896
1760898176434897200,0.754897216796875,-2.1358888149261475,0.780837893486023,-0.4153880476951599
1760898176444584400,0.76458447265625,-2.1872012615203857,0.7820596098899841,-0.3384190797805786
1760898176454271500,0.774271484375,-2.1884231567382812,0.7942769527435303,-0.30054548382759094
1760898176463958800,0.783958740234375,-2.1248931884765625,0.8651372194290161,-0.2993237376213074
1760898176473645800,0.793645751953125,-2.0320417881011963,0.9469931125640869,-0.3543015718460083
1760898176483333000,0.8033330078125,-1.9062035083770752,0.9640973210334778,-0.42394015192985535
1760898176493020200,0.813020263671875,-1.7205007076263428,0.8736893534660339,-0.4276053309440613
1760898176502707500,0.82270751953125,-1.443168044090271,0.6696605086326599,-0.35674503445625305
1760898176512394800,0.832394775390625,-1.1780527830123901,0.45097091794013977,-0.2883281707763672
1760898176522081800,0.842081787109375,-0.9361502528190613,0.28237223625183105,-0.15760311484336853
1760898176531769000,0.85176904296875,-0.7528908252716064,0.16019928455352783,-0.002443459117785096
1760898176541456100,0.8614560546875,-0.5965094566345215,0.09422589093446732,0.1026252806186676
1760898176551143400,0.871143310546875,-0.35582873225212097,-0.3370446562767029,0.2162461280822754
1760898176560830500,0.88083056640625,0.021685699000954628,-0.8318451046943665,0.19669845700263977
1760898176570517800,0.890517822265625,0.3588830530643463,-0.8086322546005249,-0.040317077189683914
1760898176580205000,0.900205078125,0.46883872151374817,-0.7512109875679016,-0.27977606654167175
1760898176589892000,0.90989208984375,0.4834994673728943,-0.5838339924812317,-0.4838049113750458
1760898176599579400,0.919579345703125,0.4566214084625244,-0.41523534059524536,-0.6340776681900024
1760898176609266400,0.929266357421875,0.39186975359916687,-0.24174973368644714,-0.7220421433448792
1760898176618953700,0.93895361328125,0.29046618938446045,-0.02672533318400383,-0.794124186038971
1760898176628641000,0.94864111328125,0.15118902921676636,0.25060728192329407,-0.8552106618881226
1760898176638328000,0.958328125,0.016798781231045723,0.6061305999755859,-0.9126319885253906
1760898176648015400,0.968015380859375,-0.09315688163042068,0.8468112945556641,-1.0128138065338135
1760898176657702400,0.977702392578125,-0.168904110789299,0.8602503538131714,-1.138651967048645
1760898176667389700,0.9873896484375,-0.2214384824037552,0.6696605086326599,-1.1997383832931519
1760898176677076700,0.99707666015625,-0.2458730787038803,0.37400195002555847,-1.2351685762405396
1760898176686764000,1.006763916015625,-0.21410810947418213,0.06123919412493706,-1.1655299663543701
1760898176696451300,1.016451416015625,-0.10048725455999374,-0.007177661173045635,-1.0421353578567505
1760898176706138400,1.026138427734375,-0.1078176349401474,-0.24785839021205902,-0.9382883310317993
1760898176715825700,1.03582568359375,-0.21288637816905975,-0.2331976294517517,-0.7122683525085449
1760898176725512700,1.0455126953125,-0.31062474846839905,-0.053603384643793106,-0.5387827157974243
1760898176735200000,1.055199951171875,-0.35094180703163147,0.20906847715377808,-0.43860089778900146
1760898176744887000,1.064886962890625,-0.4169152081012726,0.43020153045654297,-0.33597561717033386
1760898176754574300,1.07457421875,-0.4425715208053589,0.43631017208099365,-0.1954767256975174
1760898176764261600,1.08426171875,-0.3814850449562073,0.32268932461738586,-0.1185077652335167
1760898176773948700,1.09394873046875,-0.2764163017272949,0.1773035079240799,-0.036651886999607086
1760898176783636000,1.103635986328125,-0.1542433500289917,-0.057268574833869934,0.08063415437936783
1760898176793323000,1.113322998046875,-0.010079269297420979,-0.21487168967723846,0.17104214429855347
1760898176803010300,1.12301025390625,0.07422006875276566,-0.2808450758457184,0.235793799161911
1760898176812697300,1.132697265625,0.07055488228797913,-0.21731515228748322,0.2993237376213074
1760898176822384600,1.142384521484375,0.044898562133312225,-0.037720900028944016,0.3543015718460083
1760898176832072000,1.152072021484375,0.022907428443431854,0.1003345400094986,0.36651885509490967
1760898176841759000,1.161759033203125,0.05100720748305321,0.09544762223958969,0.3176496922969818
1760898176851446300,1.1714462890625,0.1438586562871933,-0.010842849500477314,0.21258094906806946
1760898176861133300,1.18113330078125,0.24404047429561615,-0.17944152653217316,0.0977383628487587
1760898176870820600,1.190820556640625,0.29046618938446045,-0.31871870160102844,0.028099779039621353
1760898176880507600,1.200507568359375,0.2525925934314728,-0.29672756791114807,-0.036651886999607086
1760898176890195000,1.21019482421875,0.1536324918270111,-0.13912445306777954,-0.0818558782339096
1760898176899882200,1.21988232421875,0.03390299528837204,0.03802633285522461,-0.10506874322891235
1760898176909569300,1.2295693359375,-0.07605266571044922,0.13698641955852509,-0.12217295914888382
1760898176919256600,1.239256591796875,-0.13469567894935608,0.09178243577480316,-0.12461641430854797
1760898176928943600,1.248943603515625,-0.12492185086011887,-0.008399390615522861,-0.09651663154363632
1760898176938631000,1.258630859375,-0.09437860548496246,-0.07559451460838318,-0.0720820426940918
1760898176948318200,1.268318115234375,-0.13103049993515015,-0.12935061752796173,-0.11239911615848541
1760898176958005200,1.278005126953125,-0.19089524447917938,-0.02672533318400383,-0.2406807243824005
1760898176967692500,1.287692626953125,-0.2910770773887634,0.09789107739925385,-0.3738492429256439
1760898176977379600,1.297379638671875,-0.425467312335968,0.036804601550102234,-0.4862483739852905
1760898176987067000,1.30706689453125,-0.5696313977241516,-0.12446369975805283,-0.5302306413650513
1760898176996754200,1.316754150390625,-0.6624828577041626,-0.08903354406356812,-0.6206386089324951
1760898177006441200,1.326441162109375,-0.712573766708374,0.027030766010284424,-0.7855721116065979
1760898177016128500,1.33612841796875,-0.8078686594963074,0.09544762223958969,-0.8600975871086121
1760898177025815600,1.345815673828125,-0.8738420605659485,0.29336780309677124,-0.8210022449493408
1760898177035502800,1.3555029296875,-0.9337068200111389,0.32757624983787537,-0.8026763200759888
1760898177045190000,1.36518994140625,-0.9581413865089417,0.3935496211051941,-0.6743947267532349
1760898177054877200,1.374877197265625,-0.9630283117294312,0.34468045830726624,-0.5974257588386536
1760898177064564500,1.384564453125,-1.0082323551177979,0.25671592354774475,-0.5253437161445618
1760898177074251500,1.39425146484375,-1.1181880235671997,0.23105959594249725,-0.4581485986709595
1760898177083938800,1.403938720703125,-1.295338749885559,0.2237292230129242,-0.3860665261745453
1760898177093625900,1.4136259765625,-1.4883720874786377,0.1516471803188324,-0.26878049969673157
1760898177103313200,1.423313232421875,-1.648418664932251,0.019700389355421066,-0.1331685185432434
1760898177113000400,1.43300048828125,-1.7669264078140259,-0.1415679156780243,-0.03298669680953026
1760898177122687500,1.4426875,-1.870773434638977,-0.2759581506252289,0.03909534588456154
1760898177132374800,1.452374755859375,-1.9721769094467163,-0.40057456493377686,0.08918625861406326
1760898177142061800,1.462061767578125,-2.0491459369659424,-0.5569559335708618,0.11972949653863907
1760898177151749000,1.4717490234375,-2.104123830795288,-0.6998983025550842,0.17592905461788177
1760898177161436200,1.481436279296875,-2.145662546157837,-0.7609847784042358,0.23212862014770508
1760898177171123500,1.49112353515625,-2.195753335952759,-0.8220712542533875,0.26389357447624207
1760898177180810800,1.500810791015625,-2.302043914794922,-0.9185879230499268,0.3274235129356384
1760898177190497800,1.510497802734375,-2.4132213592529297,-1.030987024307251,0.3396408259868622
1760898177200185000,1.52018505859375,-2.5305073261260986,-1.1849249601364136,0.3750709891319275
1760898177209872100,1.5298720703125,-2.5353941917419434,-1.1946988105773926,0.46914416551589966
1760898177219559400,1.539559326171875,-2.403447389602661,-0.9002619981765747,0.46547895669937134
1760898177229246500,1.54924658203125,-2.2360706329345703,-0.6400335431098938,0.33108872175216675
1760898177238933800,1.558933837890625,-2.073580503463745,-0.37858346104621887,0.11972949653863907
1760898177248621000,1.56862109375,-1.940411925315857,-0.22708898782730103,-0.0769689604640007
1760898177258308000,1.57830810546875,-1.8964296579360962,-0.21731515228748322,-0.19669845700263977
1760898177267995400,1.587995361328125,-1.950185775756836,-0.3370446562767029,-0.2663370370864868
1760898177277682400,1.597682373046875,-2.0723588466644287,-0.567951500415802,-0.3335321843624115
1760898177287369700,1.60736962890625,-2.269057273864746,-0.8330668210983276,-0.43982264399528503
1760898177297056800,1.617056884765625,-2.5219552516937256,-1.0529781579971313,-0.5998691916465759
1760898177306744000,1.626744140625,-2.811505079269409,-1.2777763605117798,-0.8075632452964783
1760898177316431400,1.636431396484375,-3.1389286518096924,-1.4781399965286255,-1.0409135818481445
1760898177326118400,1.646118408203125,-3.4626870155334473,-1.6785037517547607,-1.2718204259872437
1760898177335805700,1.6558056640625,-3.7400195598602295,-1.9228496551513672,-1.4587451219558716
1760898177345492700,1.66549267578125,-3.9550440311431885,-2.205069065093994,-1.5968005657196045
1760898177355180000,1.675179931640625,-4.104094982147217,-2.4885103702545166,-1.68354332447052
1760898177364867300,1.684867431640625,-4.214050769805908,-2.7255258560180664,-1.7263038158416748
1760898177374554400,1.694554443359375,-4.3240065574646,-2.880685567855835,-1.7348560094833374
1760898177384241700,1.70424169921875,-4.429075241088867,-3.0016367435455322,-1.6994258165359497
1760898177393928700,1.7139287109375,-4.520704746246338,-3.191004991531372,-1.6297872066497803
1760898177403616000,1.723615966796875,-4.58301305770874,-3.4292421340942383,-1.5418226718902588
1760898177413303000,1.733302978515625,-4.611112594604492,-3.6247189044952393,-1.4379756450653076
1760898177422990300,1.742990234375,-4.611112594604492,-3.779878616333008,-1.3255765438079834
1760898177432677600,1.752677734375,-4.6037821769714355,-3.909381866455078,-1.2168426513671875
1760898177442364700,1.76236474609375,-4.613556385040283,-3.9460337162017822,-1.1215476989746094
1760898177452052000,1.772052001953125,-4.612334728240967,-3.937481641769409,-1.0506874322891235
1760898177461739000,1.781739013671875,-4.565908908843994,-3.939925193786621,-0.9957095980644226
1760898177471426300,1.79142626953125,-4.454731464385986,-4.001011371612549,-0.9407317638397217
1760898177481113300,1.80111328125,-4.298349857330322,-4.128071308135986,-0.8967494964599609
1760898177490800600,1.810800537109375,-4.110203742980957,-4.229475021362305,-0.8808670043945312
1760898177500488000,1.820488037109375,-3.8805184364318848,-4.252687931060791,-0.8930842876434326
1760898177510175000,1.830175048828125,-3.6227335929870605,-4.172053813934326,-0.9187406301498413
1760898177519862300,1.8398623046875,-3.41137433052063,-4.027889728546143,-0.9382883310317993
1760898177529549300,1.84954931640625,-3.280649185180664,-3.827526092529297,-0.924849271774292
1760898177539236600,1.859236572265625,-3.2232279777526855,-3.512319803237915,-0.8246674537658691
1760898177548923600,1.868923583984375,-3.222006320953369,-3.1164793968200684,-0.6145299673080444
1760898177558611000,1.87861083984375,-3.229336738586426,-2.7792820930480957,-0.2932150959968567
1760898177568298200,1.88829833984375,-3.179245710372925,-2.5214970111846924,0.11362084746360779
1760898177577985300,1.8979853515625,-3.0326383113861084,-2.3089160919189453,0.5522217750549316
1760898177587672600,1.907672607421875,-2.799287796020508,-2.0780093669891357,0.9492838382720947
1760898177597359600,1.917359619140625,-2.5219552516937256,-1.8422154188156128,1.255937933921814
1760898177607047000,1.927046875,-2.221409797668457,-1.6381865739822388,1.452636480331421
1760898177616734000,1.93673388671875,-1.9110904932022095,-1.4842487573623657,1.556483507156372
1760898177626421200,1.946421142578125,-1.589775562286377,-1.3962842226028442,1.6517783403396606
1760898177636108500,1.956108642578125,-1.240360975265503,-1.1849249601364136,1.7201951742172241
1760898177645795600,1.965795654296875,-0.8860593438148499,-1.1421644687652588,1.731190800666809
1760898177655483000,1.97548291015625,-0.5195404887199402,-1.1592686176300049,1.7519601583480835
1760898177665170000,1.985169921875,-0.17745621502399445,-0.9686788320541382,1.7385212182998657
1760898177674857200,1.994857177734375,0.11331541836261749,-0.9100357890129089,1.6505566835403442
1760898177684544500,2.00454443359375,0.37110036611557007,-0.9552397727966309,1.5247185230255127
1760898177694231600,2.0142314453125,0.5849030017852783,-0.9503529071807861,1.331685185432434
1760898177703918800,2.0239189453125,0.6948586702346802,-1.0468695163726807,0.9883792400360107
1760898177713606000,2.03360595703125,0.6667588949203491,-1.3706278800964355,0.5033525824546814
1760898177723293200,2.043293212890625,0.5348120927810669,-1.5123485326766968,-0.050090912729501724
1760898177732980200,2.052980224609375,0.42974337935447693,-1.6662863492965698,-0.5986474752426147
1760898177742667500,2.06266748046875,0.4321868419647217,-1.7566944360733032,-1.2058470249176025
1760898177752354800,2.072354736328125,0.42974337935447693,-1.5624394416809082,-1.5613703727722168
1760898177762041900,2.082041748046875,0.4566214084625244,-1.437822937965393,-1.6530001163482666
1760898177771729200,2.091729248046875,0.4981602132320404,-1.3950624465942383,-1.5344923734664917
1760898177781416200,2.101416259765625,0.5067123174667358,-1.3852885961532593,-1.2547162771224976
1760898177791103500,2.111103515625,0.4712821841239929,-1.3571888208389282,-0.924849271774292
1760898177800790500,2.12079052734375,0.44318240880966187,-1.243567943572998,-0.6316341757774353
1760898177810477800,2.130477783203125,0.47494736313819885,-1.1336122751235962,-0.40927940607070923
1760898177820165000,2.1401650390625,0.5677987933158875,-0.9845613241195679,-0.20280711352825165
1760898177829852200,2.14985205078125,0.6826413869857788,-0.718224287033081,0.05497783049941063
1760898177839539500,2.15953955078125,0.78648841381073,-0.33460119366645813,0.34086254239082336
1760898177849226500,2.1692265625,0.82436203956604,0.06123919412493706,0.6206386089324951
1760898177858913800,2.178913818359375,0.766940712928772,0.43631017208099365,0.831997811794281
1760898177868600800,2.188600830078125,0.6728675365447998,0.7368556261062622,0.8539889454841614
1760898177878288100,2.1982880859375,0.5873464941978455,0.9030108451843262,0.6963858604431152
1760898177887975400,2.207975341796875,0.5140427350997925,0.9604321718215942,0.536339282989502
1760898177897662500,2.217662353515625,0.46028661727905273,0.9604321718215942,0.4581485986709595
1760898177907349800,2.227349853515625,0.3796524703502655,0.9359975457191467,0.4862483739852905
1760898177917036800,2.237036865234375,0.2513708472251892,0.8455895781517029,0.5436696410179138
1760898177926724000,2.24672412109375,0.10231985151767731,0.735633909702301,0.6035344004631042
1760898177936411100,2.2564111328125,-0.06017018109560013,0.6635518670082092,0.6719512343406677
1760898177946098400,2.266098388671875,-0.20189081132411957,0.5988001823425293,0.6524035930633545
1760898177955785700,2.27578564453125,-0.2922987937927246,0.6293434500694275,0.6218603253364563
1760898177965472800,2.28547265625,-0.3546070158481598,0.7283035516738892,0.6194168925285339
1760898177975160000,2.29516015625,-0.4523453712463379,0.7392991185188293,0.6267472505569458
1760898177984847000,2.30484716796875,-0.61117023229599,0.5523744821548462,0.6707295179367065
1760898177994534400,2.314534423828125,-0.8359684348106384,0.22739441692829132,0.7330377101898193
1760898178004221700,2.3242216796875,-1.072983980178833,-0.2441931962966919,0.711046576499939
1760898178013908700,2.33390869140625,-1.24769127368927,-0.7243329286575317,0.5522217750549316
1760898178023596000,2.343595947265625,-1.3173298835754395,-0.9894482493400574,0.3689623177051544
1760898178033283000,2.353282958984375,-1.3112212419509888,-1.1629338264465332,0.24556763470172882
1760898178042970400,2.362970458984375,-1.3136646747589111,-1.188590168952942,0.1026252806186676
1760898178052657400,2.372657470703125,-1.3222168684005737,-1.0456477403640747,-0.10629047453403473
1760898178062344700,2.3823447265625,-1.3466514348983765,-0.8721621632575989,-0.3396408259868622
1760898178072032000,2.392031982421875,-1.3735294342041016,-0.7304415702819824,-0.5962040424346924
1760898178081719000,2.401718994140625,-1.4309507608413696,-0.6058251261711121,-0.80389803647995
1760898178091406300,2.41140625,-1.5030328035354614,-0.5752819180488586,-0.9382883310317993
1760898178101093400,2.42109326171875,-1.5861103534698486,-0.7475457787513733,-1.0079269409179688
1760898178110780700,2.43078076171875,-1.6508620977401733,-0.9833396077156067,-1.0225876569747925
1760898178120467700,2.4404677734375,-1.7107268571853638,-1.0480912923812866,-0.9944878816604614
1760898178130155000,2.450155029296875,-1.804800033569336,-0.9894482493400574,-0.8991929292678833
1760898178139842000,2.459842041015625,-1.9184207916259766,-0.8660535216331482,-0.7806851863861084
1760898178149529300,2.469529296875,-2.0112721920013428,-0.7585413455963135,-0.6499601006507874
1760898178159216600,2.479216552734375,-2.0051636695861816,-0.7023417949676514,-0.5412262082099915
1760898178168903700,2.488903564453125,-1.9489641189575195,-0.5545125007629395,-0.44959646463394165
1760898178178591000,2.498591064453125,-1.9171991348266602,-0.3272708058357239,-0.36774060130119324
1760898178188278000,2.508278076171875,-1.9196425676345825,-0.02916879393160343,-0.3090975880622864
1760898178197965300,2.51796533203125,-1.9355250597000122,0.27748534083366394,-0.3042106628417969
1760898178207652400,2.52765234375,-1.9171991348266602,0.47296205163002014,-0.3494146466255188
1760898178217339600,2.537339599609375,-1.8732168674468994,0.5645917654037476,-0.40317076444625854
1760898178227027000,2.54702685546875,-1.8377866744995117,0.5707004070281982,-0.45326167345046997
1760898178236714000,2.5567138671875,-1.8573343753814697,0.44119709730148315,-0.5119046568870544
1760898178246401300,2.5664013671875,-1.9367468357086182,0.22250749170780182,-0.5632173418998718
1760898178256088300,2.57608837890625,-1.996611475944519,0.008704823441803455,-0.5803215503692627
1760898178265775600,2.585775634765625,-1.9489641189575195,-0.10858121514320374,-0.516791582107544
1760898178275462700,2.595462646484375,-1.8463387489318848,-0.19898919761180878,-0.2993237376213074
1760898178285150000,2.60514990234375,-1.823125958442688,-0.2026543915271759,0.040317077189683914
1760898178294837200,2.614837158203125,-1.940411925315857,-0.22220206260681152,0.4276053309440613
1760898178304524300,2.624524169921875,-2.1444408893585205,-0.30283620953559875,0.7953459620475769
1760898178314211600,2.634211669921875,-2.344804525375366,-0.3724747896194458,1.0934479236602783
1760898178323898600,2.643898681640625,-2.3875648975372314,-0.4030180275440216,1.1997383832931519
1760898178333586000,2.6535859375,-2.0442590713500977,0.014813470654189587,0.9700532555580139
1760898178343273000,2.66327294921875,-1.5494585037231445,0.6782126426696777,0.6450732350349426
1760898178352960300,2.672960205078125,-1.2635737657546997,1.218217134475708,0.5082395076751709
1760898178362647600,2.6826474609375,-1.1939351558685303,1.4381283521652222,0.5864301919937134
1760898178372334600,2.69233447265625,-1.1927134990692139,1.2292126417160034,0.7342594861984253
1760898178382022000,2.70202197265625,-1.2599085569381714,0.6549997329711914,0.7757982611656189
1760898178391709000,2.711708984375,-1.5494585037231445,0.22128576040267944,0.7452550530433655
1760898178401396200,2.721396240234375,-1.9037600755691528,0.12232567369937897,0.7159335017204285
1760898178411083500,2.73108349609375,-2.17620587348938,0.0062613640911877155,0.5778780579566956
1760898178420770600,2.7407705078125,-2.3973388671875,-0.28328853845596313,0.3799578845500946
1760898178430457900,2.750457763671875,-2.6587889194488525,-0.6620246767997742,0.25900667905807495
1760898178440145000,2.760144775390625,-2.9825472831726074,-1.096960425376892,0.20891575515270233
1760898178449832200,2.769832275390625,-3.207345485687256,-1.5306744575500488,0.15638138353824615
1760898178459519200,2.779519287109375,-3.280649185180664,-1.5636610984802246,0.02932151034474373
1760898178469206500,2.78920654296875,-3.1706936359405518,-1.1287254095077515,-0.14172062277793884
1760898178478893800,2.798893798828125,-2.948338747024536,-0.28206682205200195,-0.12583814561367035
1760898178488580900,2.808580810546875,-2.7479751110076904,0.4130973219871521,0.03176496922969818
1760898178498268200,2.81826806640625,-2.612363338470459,0.7344121932983398,0.2577849328517914
1760898178507955200,2.827955078125,-2.542724609375,0.8529199361801147,0.5510000586509705
1760898178517642500,2.837642578125,-2.4962990283966064,0.9531017541885376,0.8026763200759888
1760898178527329500,2.84732958984375,-2.388786792755127,1.169347882270813,0.9236275553703308
1760898178537016800,2.857016845703125,-2.1554362773895264,1.4857758283615112,0.8808670043945312
1760898178546704100,2.8667041015625,-1.8903210163116455,1.8388557434082031,0.8185588121414185
1760898178556391200,2.87639111328125,-1.9355250597000122,2.201709270477295,0.8087849617004395
1760898178566078500,2.886078369140625,-2.6807801723480225,2.6818490028381348,0.7990111112594604
1760898178575765500,2.895765625,-3.6923720836639404,3.0996806621551514,0.7867938280105591
1760898178585452800,2.905452880859375,-4.2372636795043945,3.2927138805389404,0.6621774435043335
1760898178595139800,2.915139892578125,-4.232376575469971,3.1363325119018555,0.38728827238082886
1760898178604827100,2.9248271484375,-3.878075122833252,2.813795804977417,-0.002443459117785096
1760898178624201500,2.944201416015625,-2.992321014404297,1.9036073684692383,-0.6304124593734741
1760898178633888800,2.953888671875,-2.7369797229766846,1.5004366636276245,-0.7073814272880554
1760898178643575800,2.963575927734375,-2.5696027278900146,1.2023346424102783,-0.6927206516265869
1760898178653263000,2.97326318359375,-2.3875648975372314,1.0166317224502563,-0.6633991599082947
1760898178662950400,2.982950439453125,-2.1529929637908936,0.9347758293151855,-0.6536253094673157
1760898178672637400,2.992637451171875,-1.870773434638977,0.9567669630050659,-0.6780598759651184
1760898178682324700,3.00232470703125,-1.5543454885482788,1.070387840270996,-0.7159335017204285
1760898178692011800,3.01201171875,-1.1255183219909668,1.215773582458496,-0.7440332770347595
1760898178711386000,3.03138623046875,0.7388409376144409,1.3599376678466797,-0.7318159937858582
1760898178721073400,3.041073486328125,0.8744529485702515,0.9921970963478088,-0.546113133430481
1760898178730760700,3.0507607421875,0.5482511520385742,0.39965829253196716,-0.2724456787109375
1760898178740447700,3.06044775390625,0.18661919236183167,-0.14278964698314667,-0.020769402384757996
1760898178750135000,3.070135009765625,-0.0308486707508564,-0.5080868005752563,0.14782927930355072
1760898178759822000,3.079822021484375,-0.03940077871084213,-0.6815723776817322,0.19181154668331146
1760898178769509400,3.08950927734375,-0.0027488914784044027,-0.7353284955024719,0.18203771114349365
1760898178779196400,3.099196533203125,0.0009162971982732415,-0.6974548697471619,0.16615521907806396
1760898178788883700,3.1088837890625,-0.016187917441129684,-0.5789470672607422,0.14538581669330597
1760898178798571000,3.118571044921875,-0.02718348242342472,-0.3969093859195709,0.11972949653863907
1760898178808258000,3.128258056640625,-0.012522728182375431,-0.17577634751796722,0.08429934084415436
1760898178817945300,3.1379453125,0.0204639695584774,0.014813470654189587,0.03787361457943916
1760898178827632400,3.14763232421875,0.035124726593494415,0.09789107739925385,-0.008552107028663158
1760898178837319700,3.157319580078125,0.0412333719432354,0.07345648854970932,-0.04276053607463837
1760898178847006700,3.1670068359375,0.05222893878817558,-0.003512472379952669,-0.06230820715427399
1760898178856694000,3.176694091796875,0.07422006875276566,-0.05849030241370201,-0.059864748269319534
1760898178866381300,3.18638134765625,0.09865466505289078,-0.06704241037368774,-0.036651886999607086
1760898178876068400,3.196068359375,0.08155044913291931,-0.0902552679181099,0.003665188793092966
1760898178885755600,3.205755615234375,0.04734202101826668,-0.09269873052835464,0.05497783049941063
1760898178895442700,3.215442626953125,0.03390299528837204,-0.03283398225903511,0.0769689604640007
1760898178905130000,3.2251298828125,0.022907428443431854,0.0038179049734026194,0.07330377399921417
1760898178914817000,3.234817138671875,0.00946840364485979,-0.018173227086663246,0.06108647957444191
1760898178924504300,3.24450439453125,-0.003970621153712273,-0.0694858655333519,0.04764745384454727
1760898178934191600,3.254191650390625,-0.014966187067329884,-0.10858121514320374,0.03787361457943916
1760898178943878700,3.263878662109375,-0.01740964688360691,-0.1049160286784172,0.021991131827235222
1760898178953566000,3.27356591796875,-0.005192350596189499,-0.030390523374080658,-0.010995565913617611
1760898178963253000,3.2832529296875,-0.0015271619195118546,0.06612611562013626,-0.03909534588456154
1760898178972940300,3.292940185546875,-0.012522728182375431,0.12965604662895203,-0.050090912729501724
1760898178982627600,3.302627685546875,-0.06627883017063141,0.20540328323841095,-0.04153880476951599
1760898178992314600,3.312314697265625,-0.18845178186893463,0.40088000893592834,-0.03909534588456154
1760898179002002000,3.322001953125,-0.06872228533029556,0.5487092733383179,-0.10018182545900345
1760898179011689000,3.33168896484375,0.04245510324835777,0.6611084342002869,-0.12950333952903748
1760898179021376300,3.341376220703125,0.11087195575237274,0.7050906419754028,-0.10995566099882126
1760898179031063600,3.3510634765625,0.16096286475658417,0.633008599281311,-0.0769689604640007
1760898179040750600,3.36075048828125,0.1695149689912796,0.4240928590297699,-0.05742128938436508
1760898179050438000,3.37043798828125,0.14141519367694855,0.21395538747310638,-0.03176496922969818
1760898179060125000,3.380125,0.10965022444725037,0.14309507608413696,-0.002443459117785096
1760898179069812200,3.389812255859375,0.07788526266813278,0.06368265300989151,-0.013439024798572063
1760898179079499300,3.399499267578125,0.022907428443431854,0.15286891162395477,-0.012217295356094837
1760898179089186600,3.4091865234375,0.01435532234609127,0.05635227635502815,-0.05742128938436508
1760898179098873900,3.418873779296875,0.016798781231045723,-0.18921536207199097,-0.11606431007385254
1760898179108561000,3.428560791015625,-0.018631376326084137,-0.3675878942012787,-0.14049890637397766
1760898179118248200,3.438248291015625,-0.08826996386051178,-0.4555523991584778,-0.17348559200763702
1760898179127935200,3.447935302734375,-0.1701258420944214,-0.3675878942012787,-0.1954767256975174
1760898179137622500,3.45762255859375,-0.22754712402820587,-0.19898919761180878,-0.22357651591300964
1760898179147309800,3.467309814453125,-0.231212317943573,-0.05849030241370201,-0.2712239623069763
1760898179156996900,3.476996826171875,-0.2214384824037552,0.049021899700164795,-0.3029889166355133
1760898179166684200,3.48668408203125,-0.20433427393436432,0.1259908676147461,-0.2834412455558777
1760898179176371200,3.49637109375,-0.1847866028547287,0.1418733447790146,-0.21258094906806946
1760898179186058500,3.50605859375,-0.16035200655460358,0.11621702462434769,-0.11484257876873016
1760898179195745800,3.515745849609375,-0.14080433547496796,0.09666935354471207,-0.01954767294228077
1760898179205432800,3.525432861328125,-0.1285870373249054,0.07712167501449585,0.04153880476951599
1760898179215120100,3.5351201171875,-0.12370011955499649,0.04780016839504242,0.05497783049941063
1760898179224807200,3.54480712890625,-0.13225223124027252,0.04046979174017906,0.0256563201546669
1760898179234494500,3.554494384765625,-0.12614357471466064,0.036804601550102234,-0.06352993845939636
1760898179244181500,3.564181396484375,-0.12003492563962936,0.06123919412493706,-0.17104214429855347
1760898179253868800,3.573868896484375,-0.08582650125026703,0.13820815086364746,-0.21868959069252014
1760898179263556000,3.58355615234375,-0.06261363625526428,0.26160284876823425,-0.17715078592300415
1760898179273243100,3.5932431640625,-0.12247838824987411,0.42531460523605347,-0.08063415437936783
1760898179282930400,3.602930419921875,-0.168904110789299,0.5682569742202759,0.030543239787220955
1760898179292617500,3.612617431640625,-0.19700388610363007,0.5963567495346069,0.1490510106086731
1760898179302304800,3.6223046875,-0.189673513174057,0.4766272306442261,0.24434591829776764
1760898179311992000,3.631991943359375,-0.13958260416984558,0.20540328323841095,0.28588470816612244
1760898179321679000,3.64167919921875,-0.07238747924566269,-0.18921536207199097,0.2663370370864868
1760898179331366400,3.651366455078125,-0.007635809946805239,-0.6107120513916016,0.20158538222312927
1760898179341053400,3.661053466796875,0.035124726593494415,-0.9320269227027893,0.13194678723812103
1760898179350740700,3.67074072265625,0.054672397673130035,-1.0639737844467163,0.08552107214927673
1760898179360428000,3.680427978515625,0.054672397673130035,-1.0199915170669556,0.08674279600381851
1760898179370115000,3.690114990234375,0.0412333719432354,-0.8856012225151062,0.14660754799842834
1760898179379802400,3.69980224609375,0.029016077518463135,-0.7267763614654541,0.2467893660068512
1760898179389489400,3.709489501953125,0.03023780696094036,-0.5740602016448975,0.35796675086021423
1760898179399176700,3.7191767578125,0.03634645417332649,-0.4494437575340271,0.4520399272441864
1760898179408864000,3.728864013671875,0.03390299528837204,-0.3529271185398102,0.5155698657035828
1760898179418551000,3.738551025390625,0.02412915788590908,-0.28817546367645264,0.5485565662384033
1760898179428238300,3.74823828125,0.00946840364485979,-0.2649625837802887,0.5558869242668152
1760898179437925400,3.75792529296875,-0.01740964688360691,-0.28328853845596313,0.544891357421875
1760898179447612700,3.76761279296875,-0.04673115536570549,-0.3150535225868225,0.5204567909240723
1760898179457300000,3.777300048828125,-0.05894844979047775,-0.32360562682151794,0.49113526940345764
1760898179466987000,3.786987060546875,-0.11881320178508759,-0.04016435891389847,0.6328558921813965
1760898179476674300,3.79667431640625,-0.528092622756958,0.5193877816200256,0.8955277800559998
1760898179486361600,3.806361572265625,-0.4780016839504242,0.5804742574691772,0.7574723362922668
1760898179496048600,3.816048583984375,-0.3594939112663269,0.4534143805503845,0.6047561168670654
1760898179505736000,3.82573583984375,-0.34605491161346436,0.3556760251522064,0.5766563415527344
1760898179515423000,3.835423095703125,-0.2556469142436981,0.2787070572376251,0.526565432548523
1760898179525110300,3.8451103515625,-0.07849612087011337,0.19929464161396027,0.4153880476951599
1760898179534797300,3.85479736328125,0.129197895526886,0.05513054504990578,0.33719736337661743
1760898179544484600,3.864484619140625,0.3026835024356842,-0.1672242283821106,0.3176496922969818
1760898179554172000,3.874171875,0.3796524703502655,-0.4017963111400604,0.3543015718460083
1760898179563859000,3.88385888671875,0.39309149980545044,-0.559399425983429,0.4214966893196106
1760898179573546200,3.893546142578125,0.3759872615337372,-0.6046034097671509,0.47525280714035034
1760898179583233300,3.9032333984375,0.34666576981544495,-0.5862774848937988,0.4825831651687622
1760898179592920600,3.912920654296875,0.34177884459495544,-0.5508472919464111,0.4471530318260193
1760898179602607900,3.92260791015625,0.33200499415397644,-0.5545125007629395,0.4068359434604645
1760898179612295000,3.932294921875,0.2880227565765381,-0.6082686185836792,0.370184063911438
1760898179621982200,3.941982177734375,0.23426663875579834,-0.6620246767997742,0.3225366175174713
1760898179631669500,3.95166943359375,0.21227550506591797,-0.6791289448738098,0.25900667905807495
1760898179641356500,3.9613564453125,0.2208276242017746,-0.6913462281227112,0.1893680840730667
1760898179651043800,3.9710439453125,0.24281874299049377,-0.7695369124412537,0.11117739230394363
1760898179660731000,3.98073095703125,0.28435754776000977,-0.8990402221679688,0.034208428114652634
1760898179670418200,3.990418212890625,0.3552178740501404,-1.0358740091323853,-0.03543015569448471
1760898179680105200,4.000105224609375,0.4309650957584381,-1.1665990352630615,-0.10140355676412582
1760898179689792500,4.00979248046875,0.5079340934753418,-1.2667808532714844,-0.13683371245861053
1760898179699479800,4.019479736328125,0.42852163314819336,-1.233794093132019,-0.09285144507884979
1760898179709166800,4.029166748046875,0.06322450190782547,-0.9295834898948669,0.021991131827235222
1760898179718854100,4.038854248046875,-0.20433427393436432,-0.4689914286136627,0.0977383628487587
1760898179728541400,4.04854150390625,-0.22999058663845062,0.06001746281981468,0.1441640853881836
1760898179738228500,4.058228515625,0.022907428443431854,0.5670352578163147,0.19792018830776215
1760898179747915800,4.067915771484375,0.2672533392906189,0.911562979221344,0.2822195291519165
1760898179757602800,4.077602783203125,0.2415970265865326,0.984866738319397,0.3970620930194855
1760898179767290000,4.0872900390625,0.16829325258731842,0.8504765033721924,0.47036588191986084
1760898179776977400,4.096977294921875,0.16096286475658417,0.5572614073753357,0.4508182108402252
1760898179786664400,4.10666455078125,0.17562362551689148,0.16386447846889496,0.3530798554420471
1760898179796351700,4.116351806640625,0.17562362551689148,-0.21975859999656677,0.22357651591300964
1760898179806039000,4.1260390625,0.17195843160152435,-0.4812087416648865,0.09529490768909454
1760898179815726000,4.13572607421875,0.18173226714134216,-0.5508472919464111,0.009773836471140385
1760898179825413400,4.145413330078125,0.21349723637104034,-0.5178605914115906,-0.056199558079242706
1760898179835100400,4.155100341796875,0.2415970265865326,-0.4555523991584778,-0.08307760953903198
1760898179844787700,4.16478759765625,0.2672533392906189,-0.33948808908462524,-0.06230820715427399
1760898179854475000,4.17447509765625,0.2770271897315979,-0.20021092891693115,0.001221729558892548
1760898179864162000,4.184162109375,0.21716243028640747,-0.08903354406356812,0.12583814561367035
1760898179873849300,4.193849365234375,0.22815799713134766,-0.10735948383808136,0.22235478460788727
1760898179883536600,4.20353662109375,0.31123560667037964,-0.310166597366333,0.29565855860710144
1760898179893223700,4.2132236328125,0.37354379892349243,-0.6327031850814819,0.33231043815612793
1760898179902911000,4.222910888671875,0.27580544352531433,-0.8709404468536377,0.4312705397605896
1760898179912598000,4.232597900390625,0.21716243028640747,-0.8587231636047363,0.5485565662384033
1760898179922285300,4.242285400390625,0.2574795186519623,-0.680350661277771,0.6059778332710266
1760898179931972600,4.25197265625,0.3026835024356842,-0.4592176079750061,0.6365211009979248
1760898179941659600,4.26165966796875,0.3246746361255646,-0.31261005997657776,0.6389645338058472
1760898179951347000,4.271346923828125,0.3271180987358093,-0.2698495090007782,0.5986474752426147
1760898179961034200,4.2810341796875,0.3344484567642212,-0.2735147178173065,0.5338957905769348
1760898179970721300,4.29072119140625,0.3430005609989166,-0.2796233594417572,0.45937031507492065
1760898179980408600,4.30040869140625,0.34666576981544495,-0.2808450758457184,0.3909534513950348
1760898179990095600,4.310095703125,0.34666576981544495,-0.2698495090007782,0.3481929302215576
1760898179999783000,4.319782958984375,0.32589635252952576,-0.2600756883621216,0.3481929302215576
1760898180009470200,4.32947021484375,0.32100942730903625,-0.2539670467376709,0.40805765986442566
1760898180019157200,4.3391572265625,0.3197877109050751,-0.28206682205200195,0.5033525824546814
1760898180028844500,4.348844482421875,0.31490078568458557,-0.3223838806152344,0.6059778332710266
1760898180038531600,4.358531494140625,0.30146175622940063,-0.3614792227745056,0.6841685771942139
1760898180048219000,4.368218994140625,0.30512696504592896,-0.42134398221969604,0.711046576499939
1760898180057906200,4.37790625,0.30146175622940063,-0.4812087416648865,0.7049379348754883
1760898180067593200,4.38759326171875,0.2880227565765381,-0.504421591758728,0.6902772188186646
1760898180077280500,4.397280517578125,0.2868010103702545,-0.4958694875240326,0.6511818766593933
1760898180086967800,4.4069677734375,0.2965748608112335,-0.47754353284835815,0.5888736248016357
1760898180096654800,4.41665478515625,0.2831358313560486,-0.4079049527645111,0.5485565662384033
1760898180106342100,4.426342041015625,0.2770271897315979,-0.3052796721458435,0.5180133581161499
1760898180116029400,4.436029541015625,0.28435754776000977,-0.21609342098236084,0.48502662777900696
1760898180125716500,4.445716552734375,0.2880227565765381,-0.14889828860759735,0.4520399272441864
1760898180135403800,4.45540380859375,0.29901832342147827,-0.1049160286784172,0.411722868680954
1760898180145090800,4.4650908203125,0.3124573230743408,-0.1366809904575348,0.38240134716033936
1760898180154778000,4.474778076171875,0.32100942730903625,-0.14523309469223022,0.33231043815612793
1760898180164465400,4.48446533203125,0.3039052188396454,-0.0902552679181099,0.27855435013771057
1760898180174152400,4.49415234375,0.31612253189086914,-0.041386090219020844,0.20891575515270233
1760898180183839700,4.50383984375,0.32100942730903625,-0.027947064489126205,0.16126830875873566
1760898180193527000,4.513527099609375,0.3222311735153198,-0.009621120058000088,0.12217295914888382
1760898180203214000,4.523214111328125,0.291687935590744,0.027030766010284424,0.12095122784376144
1760898180212901400,4.5329013671875,0.24892739951610565,0.06979130208492279,0.13561198115348816
1760898180222588700,4.542588623046875,0.23548837006092072,0.05513054504990578,0.1441640853881836
1760898180232275700,4.552275634765625,0.2306014597415924,0.03436114266514778,0.13439024984836578
1760898180241963000,4.561962890625,0.20616686344146729,-0.0010690133785828948,0.11117739230394363
1760898180251650000,4.571650146484375,0.1744018942117691,-0.06826414167881012,0.11117739230394363
1760898180261337300,4.58133740234375,0.16218459606170654,-0.04505127668380737,0.14538581669330597
1760898180271024600,4.591024658203125,0.15241076052188873,-0.027947064489126205,0.17104214429855347
1760898180280711700,4.600711669921875,0.1536324918270111,-0.07070759683847427,0.16859868168830872
1760898180290399000,4.61039892578125,0.16340632736682892,-0.12690715491771698,0.14782927930355072
1760898180300086300,4.620086181640625,0.18417572975158691,-0.11591159552335739,0.12583814561367035
1760898180309773300,4.629773193359375,0.15729768574237823,-0.03527744114398956,0.0977383628487587
1760898180319460600,4.639460693359375,0.10476330667734146,-0.06826414167881012,0.08796452730894089
1760898180329147600,4.649147705078125,0.1340848207473755,-0.12690715491771698,0.08918625861406326
1760898180338835000,4.6588349609375,0.17318016290664673,-0.12446369975805283,0.09162971377372742
1760898180348522200,4.668522216796875,0.1902843713760376,-0.08781181275844574,0.07574722915887833
1760898180358209300,4.678209228515625,0.1902843713760376,-0.06582067906856537,0.0513126403093338
1760898180367896600,4.687896484375,0.18295399844646454,-0.06582067906856537,0.043982263654470444
1760898180377583900,4.697583984375,0.17562362551689148,-0.057268574833869934,0.05497783049941063
1760898180387271000,4.70727099609375,0.1695149689912796,-0.04627300798892975,0.06963858753442764
1760898180396958200,4.716958251953125,0.15729768574237823,-0.06215549260377884,0.0769689604640007
1760898180406645500,4.7266455078125,0.13530655205249786,-0.08781181275844574,0.0769689604640007
1760898180416332500,4.73633251953125,0.11575887352228165,-0.09758564829826355,0.07574722915887833
1760898180426019800,4.746019775390625,0.10231985151767731,-0.08903354406356812,0.07086031138896942
1760898180435707100,4.75570703125,0.09621120244264603,-0.06582067906856537,0.06352993845939636
1760898180445394200,4.765394287109375,0.09132428467273712,-0.0206166859716177,0.046425722539424896
1760898180455081500,4.77508154296875,0.08032871782779694,-0.01695149764418602,0.023212861269712448
1760898180464768800,4.784768798828125,0.07788526266813278,-0.0694858655333519,0.013439024798572063
1760898180474455800,4.794455810546875,0.08765909820795059,-0.13545925915241241,0.017104214057326317
1760898180484143000,4.80414306640625,0.09987638890743256,-0.2136499583721161,0.030543239787220955
1760898180493830400,4.813830322265625,0.11698060482740402,-0.29184064269065857,0.04276053607463837
1760898180503517400,4.823517333984375,0.1230892539024353,-0.3370446562767029,0.046425722539424896
1760898180513204700,4.833204833984375,0.11453714966773987,-0.3407098352909088,0.050090912729501724
1760898180522891800,4.842891845703125,0.09865466505289078,-0.33948808908462524,0.05864302068948746
1760898180532579000,4.8525791015625,0.08032871782779694,-0.35048365592956543,0.06597339361906052
1760898180542266400,4.862266357421875,0.05955931544303894,-0.3675878942012787,0.06475166976451874
1760898180551953700,4.87195361328125,0.04734202101826668,-0.39446592330932617,0.05497783049941063
1760898180561640700,4.881640625,0.04978547990322113,-0.42012226581573486,0.053756099194288254
1760898180571328000,4.891327880859375,0.060781046748161316,-0.4494437575340271,0.0513126403093338
1760898180581015300,4.901015380859375,0.0766635313630104,-0.4812087416648865,0.04886918142437935
1760898180590702300,4.910702392578125,0.08643736690282822,-0.494647741317749,0.050090912729501724
1760898180600389600,4.9203896484375,0.09132428467273712,-0.48853909969329834,0.05253437161445618
1760898180610076700,4.93007666015625,0.08888082206249237,-0.4702131748199463,0.053756099194288254
1760898180619764000,4.939763916015625,0.08032871782779694,-0.4604393243789673,0.056199558079242706
1760898180629451300,4.949451171875,0.07422006875276566,-0.476321816444397,0.06719512492418289
1760898180639138300,4.95913818359375,0.06933315098285675,-0.5031998753547668,0.08796452730894089
1760898180648825600,4.96882568359375,0.06322450190782547,-0.5215258002281189,0.10629047453403473
1760898180658513000,4.978512939453125,0.060781046748161316,-0.5337430834770203,0.11606431007385254
1760898180668200000,4.988199951171875,0.05589412897825241,-0.5337430834770203,0.11117739230394363
1760898180677887200,4.99788720703125,0.04734202101826668,-0.5251910090446472,0.09896009415388107
1760898180687574500,5.007574462890625,0.038789913058280945,-0.5178605914115906,0.08307760953903198
1760898180697261600,5.017261474609375,0.03145953640341759,-0.5117519497871399,0.06841685622930527
1760898180706948900,5.026948974609375,0.029016077518463135,-0.4995346665382385,0.05497783049941063
1760898180716636200,5.03663623046875,0.03145953640341759,-0.4958694875240326,0.043982263654470444
1760898180726323200,5.0463232421875,0.038789913058280945,-0.48853909969329834,0.03909534588456154
1760898180736010500,5.056010498046875,0.048563748598098755,-0.48365217447280884,0.036651886999607086
1760898180745697800,5.06569775390625,0.05589412897825241,-0.47265663743019104,0.03298669680953026
1760898180755384800,5.075384765625,0.05589412897825241,-0.44211336970329285,0.03176496922969818
1760898180765072100,5.085072021484375,0.05100720748305321,-0.4091266989707947,0.030543239787220955
1760898180774759400,5.094759521484375,0.044898562133312225,-0.38591381907463074,0.023212861269712448
1760898180784446500,5.104446533203125,0.04001164436340332,-0.3627009689807892,0.013439024798572063
1760898180794133800,5.1141337890625,0.038789913058280945,-0.35414886474609375,0.012217295356094837
1760898180803821000,5.123821044921875,0.04001164436340332,-0.3614792227745056,0.01954767294228077
1760898180813508000,5.133508056640625,0.04001164436340332,-0.37980517745018005,0.03543015569448471
1760898180823195400,5.1431953125,0.03634645417332649,-0.3993528485298157,0.053756099194288254
1760898180832882700,5.152882568359375,0.025350889191031456,-0.4079049527645111,0.07086031138896942
1760898180842569700,5.16256982421875,0.0021380267571657896,-0.3981311321258545,0.08796452730894089
1760898180852257000,5.172257080078125,-0.022296564653515816,-0.3883572816848755,0.10140355676412582
1760898180861944300,5.1819443359375,-0.04550942778587341,-0.37980517745018005,0.11362084746360779
1760898180871631400,5.19163134765625,-0.06505709886550903,-0.37491825222969055,0.12217295914888382
1760898180881318700,5.201318603515625,-0.08093958348035812,-0.3712530732154846,0.1233946830034256
1760898180891006000,5.211005859375,-0.09437860548496246,-0.36514443159103394,0.12217295914888382
1760898180900693000,5.22069287109375,-0.10659590363502502,-0.3578140437602997,0.11606431007385254
1760898180910380300,5.23038037109375,-0.1127045527100563,-0.3578140437602997,0.10506874322891235
1760898180920067600,5.240067626953125,-0.11392628401517868,-0.35537058115005493,0.08674279600381851
1760898180929754600,5.249754638671875,-0.1127045527100563,-0.33948808908462524,0.06475166976451874
1760898180939442000,5.25944189453125,-0.10903936624526978,-0.3113883137702942,0.04153880476951599
1760898180949129200,5.269129150390625,-0.10415244847536087,-0.27840161323547363,0.013439024798572063
1760898180958816300,5.278816162109375,-0.09682206809520721,-0.24541492760181427,-0.014660755172371864
1760898180968503600,5.288503662109375,-0.08582650125026703,-0.21731515228748322,-0.04520399495959282
1760898180978190800,5.29819091796875,-0.07605266571044922,-0.1977674663066864,-0.07452550530433655
1760898180987878000,5.3078779296875,-0.06994401663541794,-0.17577634751796722,-0.0977383628487587
1760898180997565200,5.317565185546875,-0.06994401663541794,-0.14523309469223022,-0.12095122784376144
1760898181007252500,5.32725244140625,-0.07360920310020447,-0.11102467030286789,-0.1490510106086731
1760898181016939800,5.336939697265625,-0.08460476994514465,-0.07315105944871902,-0.17348559200763702
1760898181026626800,5.346626708984375,-0.09804379940032959,-0.03405570983886719,-0.19181154668331146
1760898181036314000,5.356314208984375,-0.1078176349401474,-0.014508038759231567,-0.2101374864578247
1760898181046001400,5.36600146484375,-0.11026109009981155,-0.010842849500477314,-0.23457208275794983
1760898181055688400,5.3756884765625,-0.1029307171702385,-0.043829549103975296,-0.26389357447624207
1760898181065375700,5.385375732421875,-0.08949168771505356,-0.0902552679181099,-0.29565855860710144
1760898181075063000,5.39506298828125,-0.07605266571044922,-0.09758564829826355,-0.3384190797805786
1760898181084750000,5.40475,-0.05406153202056885,-0.09758564829826355,-0.3860665261745453
1760898181094437400,5.414437255859375,-0.0308486707508564,-0.08048143237829208,-0.4251618981361389
1760898181104124700,5.424124755859375,-0.016187917441129684,-0.051159925758838654,-0.44837474822998047
1760898181113811700,5.433811767578125,-0.018631376326084137,-0.009621120058000088,-0.46425724029541016
1760898181123499000,5.4434990234375,-0.032070402055978775,0.04535670951008797,-0.4789179861545563
1760898181133186300,5.453186279296875,-0.05039634555578232,0.0844520553946495,-0.4935787320137024
1760898181142873300,5.462873291015625,-0.07483093440532684,0.11743875592947006,-0.49602219462394714
1760898181152560600,5.472560546875,-0.10415244847536087,0.11621702462434769,-0.4825831651687622
1760898181162248000,5.482248046875,-0.13591741025447845,0.09056070446968079,-0.4557051360607147
1760898181181622300,5.501622314453125,-0.1847866028547287,0.09911280870437622,-0.3811796307563782
1760898181191309600,5.5113095703125,-0.21410810947418213,0.09178243577480316,-0.35674503445625305
1760898181200996600,5.52099658203125,-0.24709481000900269,0.04046979174017906,-0.3543015718460083
1760898181210684000,5.530683837890625,-0.28008151054382324,-0.064598947763443,-0.3750709891319275
1760898181220371200,5.54037109375,-0.30573782324790955,-0.19043709337711334,-0.3970620930194855
1760898181230058200,5.550058349609375,-0.3069595396518707,-0.3150535225868225,-0.4166097939014435
1760898181239745500,5.55974560546875,-0.282524973154068,-0.4176788032054901,-0.43371400237083435
1760898181249432800,5.569432861328125,-0.2458730787038803,-0.4848739206790924,-0.4471530318260193
1760898181259120000,5.5791201171875,-0.21410810947418213,-0.49831295013427734,-0.45448338985443115
1760898181268807200,5.58880712890625,-0.18112140893936157,-0.37003132700920105,-0.4569268524646759
1760898181278494500,5.598494384765625,-0.1591302752494812,-0.16600249707698822,-0.46059203147888184
1760898181288181800,5.608181640625,-0.1444695144891739,-0.0206166859716177,-0.4923570156097412
1760898181297868800,5.617868896484375,-0.13591741025447845,0.009926552884280682,-0.5485565662384033
1760898181307556000,5.62755615234375,-0.13591741025447845,-0.03649916872382164,-0.6023126840591431
1760898181326930400,5.646930419921875,-0.16279546916484833,-0.11102467030286789,-0.6487383842468262
1760898181336617700,5.65661767578125,-0.18723005056381226,-0.1672242283821106,-0.6499601006507874
1760898181346305000,5.666304931640625,-0.21410810947418213,-0.23564109206199646,-0.637742817401886
1760898181355992300,5.675992431640625,-0.23487751185894012,-0.3272708058357239,-0.6230821013450623
1760898181365679400,5.685679443359375,-0.24220788478851318,-0.4017963111400604,-0.6145299673080444
1760898181375366700,5.69536669921875,-0.24342961609363556,-0.44700029492378235,-0.5815432667732239
1760898181385053700,5.7050537109375,-0.2556469142436981,-0.4909825623035431,-0.5253437161445618
1760898181394741000,5.714740966796875,-0.2666424810886383,-0.4738783538341522,-0.5070177912712097
1760898181404428300,5.72442822265625,-0.2678641974925995,-0.40546149015426636,-0.5155698657035828
1760898181414115600,5.734115478515625,-0.2764163017272949,-0.32360562682151794,-0.5314523577690125
1760898181423802600,5.743802734375,-0.2837466895580292,-0.2331976294517517,-0.5497782826423645
1760898181433490000,5.753489990234375,-0.2874118685722351,-0.14889828860759735,-0.5558869242668152
1760898181443177200,5.76317724609375,-0.28008151054382324,-0.10125083476305008,-0.5571087002754211
1760898181452864300,5.7728642578125,-0.26419901847839355,-0.09636391699314117,-0.5497782826423645
1760898181462551600,5.782551513671875,-0.21288637816905975,-0.07803797721862793,-0.5131264328956604
1760898181472238800,5.79223876953125,-0.14813470840454102,-0.005955931730568409,-0.3787361681461334
1760898181481926000,5.80192578125,-0.0821613147854805,-0.03894263133406639,-0.2211330533027649
1760898181491613200,5.81161328125,-0.018631376326084137,-0.12324196845293045,-0.10018182545900345
1760898181501300500,5.821300537109375,0.026572618633508682,-0.16844595968723297,-0.02932151034474373
1760898181510987800,5.83098779296875,0.04734202101826668,-0.1769980639219284,0.003665188793092966
1760898181520674800,5.8406748046875,0.04734202101826668,-0.12324196845293045,0.0256563201546669
1760898181530362000,5.850362060546875,0.03390299528837204,-0.04016435891389847,0.04886918142437935
1760898181540049400,5.86004931640625,0.013133592903614044,0.039248060435056686,0.06352993845939636
1760898181549736400,5.869736328125,-0.003970621153712273,0.10155627131462097,0.06963858753442764
1760898181559423700,5.879423828125,-0.018631376326084137,0.15286891162395477,0.06108647957444191
1760898181569111000,5.889111083984375,-0.02718348242342472,0.20906847715377808,0.034208428114652634
1760898181578798000,5.898798095703125,-0.032070402055978775,0.27259841561317444,0
1760898181588485400,5.9084853515625,-0.04306596517562866,0.3312414288520813,-0.036651886999607086
1760898181598172700,5.918172607421875,-0.051618073135614395,0.3825540542602539,-0.0720820426940918
1760898181607860000,5.92785986328125,-0.04917461425065994,0.41676250100135803,-0.10018182545900345
1760898181617547000,5.937547119140625,-0.03695731982588768,0.4350884258747101,-0.10751219838857651
1760898181627234300,5.947234375,-0.023518294095993042,0.448527455329895,-0.11117739230394363
1760898181636921600,5.956921630859375,-0.008857538923621178,0.44730573892593384,-0.12217295914888382
1760898181646608600,5.966608642578125,0.010690134018659592,0.44730573892593384,-0.1331685185432434
1760898181656296000,5.9762958984375,0.03023780696094036,0.39965829253196716,-0.14049890637397766
1760898181665983200,5.985983154296875,0.04978547990322113,0.3153589367866516,-0.14294235408306122
1760898181675670300,5.995670166015625,0.06322450190782547,0.25182899832725525,-0.13561198115348816
1760898181685357600,6.005357666015625,0.06322450190782547,0.18341214954853058,-0.1233946830034256
1760898181695044900,6.015044921875,0.05833758786320686,0.16752967238426208,-0.11728604137897491
1760898181704732200,6.024732177734375,0.04001164436340332,0.17363831400871277,-0.11606431007385254
1760898181714419200,6.034419189453125,0.016798781231045723,0.17363831400871277,-0.12583814561367035
1760898181724106500,6.0441064453125,0.010690134018659592,0.25549420714378357,-0.1282816082239151
1760898181733793800,6.053793701171875,0.0009162971982732415,0.3043633699417114,-0.13439024984836578
1760898181743480800,6.063480712890625,0.0021380267571657896,0.3165806829929352,-0.15515965223312378
1760898181753168100,6.073168212890625,0.015577051788568497,0.3776671588420868,-0.16737695038318634
1760898181762855400,6.08285546875,0.03023780696094036,0.3972148299217224,-0.18570289015769958
1760898181772542500,6.09254248046875,0.04978547990322113,0.41065385937690735,-0.20647229254245758
1760898181782229800,6.102229736328125,0.07788526266813278,0.4436405599117279,-0.21991132199764252
1760898181791917000,6.1119169921875,0.09865466505289078,0.4558578431606293,-0.2162461280822754
1760898181801604400,6.121604248046875,0.1182023361325264,0.4631882309913635,-0.20402882993221283
1760898181811291400,6.13129150390625,0.12186752259731293,0.45707955956459045,-0.18814635276794434
1760898181820978700,6.140978759765625,0.12431098520755768,0.47174033522605896,-0.16249002516269684
1760898181830666000,6.150666015625,0.1182023361325264,0.4766272306442261,-0.12705987691879272
1760898181840353000,6.16035302734375,0.10842850059270859,0.48884454369544983,-0.08552107214927673
1760898181850040300,6.170040283203125,0.09621120244264603,0.4839576184749603,-0.0513126403093338
1760898181859727600,6.1797275390625,0.0925460159778595,0.5071704983711243,-0.014660755172371864
1760898181869415000,6.189414794921875,0.08643736690282822,0.5364919900894165,0.02932151034474373
1760898181879102000,6.19910205078125,0.07422006875276566,0.5535961985588074,0.06475166976451874
1760898181888789200,6.208789306640625,0.06444623321294785,0.551152765750885,0.08063415437936783
1760898181898476500,6.2184765625,0.05222893878817558,0.5096139311790466,0.06841685622930527
1760898181908163600,6.22816357421875,0.0412333719432354,0.4350884258747101,0.046425722539424896
1760898181917851000,6.237850830078125,0.04001164436340332,0.3410152494907379,0.040317077189683914
1760898181927538200,6.2475380859375,0.04978547990322113,0.22006404399871826,0.05742128938436508
1760898181937225200,6.25722509765625,0.05955931544303894,0.08323032408952713,0.09529490768909454
1760898181946912500,6.26691259765625,0.08155044913291931,-0.01695149764418602,0.14660754799842834
1760898181956599800,6.276599853515625,0.10720676928758621,-0.051159925758838654,0.2003636509180069
1760898181966287000,6.286287109375,0.12186752259731293,-0.041386090219020844,0.24801109731197357
1760898181975974100,6.29597412109375,0.11942406743764877,-0.014508038759231567,0.287106454372406
1760898181985661400,6.305661376953125,0.11087195575237274,0.03802633285522461,0.32009315490722656
1760898181995348700,6.3153486328125,0.11087195575237274,0.13454297184944153,0.36163195967674255
1760898182005035800,6.325035888671875,0.11698060482740402,0.2689332067966461,0.41416633129119873
1760898182014723000,6.33472314453125,0.12064579129219055,0.40698865056037903,0.4557051360607147
1760898182024410400,6.344410400390625,0.09987638890743256,0.5193877816200256,0.4825831651687622
1760898182034097700,6.35409765625,0.07788526266813278,0.5816959738731384,0.4789179861545563
1760898182043784700,6.36378466796875,0.05222893878817558,0.5572614073753357,0.4471530318260193
1760898182053472000,6.373471923828125,0.0461202897131443,0.4399753510951996,0.40317076444625854
1760898182063159300,6.3831591796875,0.06933315098285675,0.27137666940689087,0.36774060130119324
1760898182072846600,6.3928466796875,0.11087195575237274,0.13942988216876984,0.3445277214050293
1760898182082533600,6.40253369140625,0.15607595443725586,0.10155627131462097,0.3139844834804535
1760898182092221000,6.412220947265625,0.18417572975158691,0.13820815086364746,0.27977606654167175
1760898182101908200,6.421908203125,0.19639302790164948,0.21517711877822876,0.25900667905807495
1760898182111595300,6.43159521484375,0.22204934060573578,0.2945895493030548,0.2565632164478302
1760898182121282600,6.441282470703125,0.23915356397628784,0.3410152494907379,0.2663370370864868
1760898182130969900,6.450969970703125,0.23304490745067596,0.3776671588420868,0.2834412455558777
1760898182140657000,6.460656982421875,0.2049451321363449,0.4228711426258087,0.3029889166355133
1760898182150344200,6.47034423828125,0.1585194170475006,0.48884454369544983,0.318871408700943
1760898182160031500,6.480031494140625,0.0925460159778595,0.5694786906242371,0.3225366175174713
1760898182169718800,6.48971875,0.048563748598098755,0.6293434500694275,0.31520622968673706
1760898182179405800,6.49940576171875,0.0204639695584774,0.6281217336654663,0.3237583339214325
1760898182189093000,6.509093017578125,-0.028405211865901947,0.6036871075630188,0.35796675086021423
1760898182198780400,6.518780517578125,-0.07971785217523575,0.634230375289917,0.3848448097705841
1760898182208467500,6.528467529296875,-0.1078176349401474,0.6488910913467407,0.4056142270565033
1760898182218154800,6.53815478515625,-0.1029307171702385,0.6305651664733887,0.41416633129119873
1760898182227842000,6.547842041015625,-0.0821613147854805,0.6415607333183289,0.4105011224746704
1760898182237529300,6.557529296875,-0.051618073135614395,0.6549997329711914,0.4056142270565033
1760898182247216400,6.56721630859375,-0.029626941308379173,0.6207913160324097,0.37629270553588867
1760898182256903700,6.576903564453125,-0.032070402055978775,0.5083922147750854,0.31031930446624756
1760898182266591000,6.586591064453125,-0.03817904740571976,0.3410152494907379,0.2211330533027649
1760898182276278000,6.596278076171875,-0.025961752980947495,0.1773035079240799,0.15027274191379547
1760898182285965300,6.60596533203125,0.004581485874950886,0.06856957077980042,0.11972949653863907
1760898182295652600,6.615652587890625,0.032681263983249664,0.009926552884280682,0.11239911615848541
1760898182305340000,6.62533984375,0.05345066636800766,-0.01206457894295454,0.10629047453403473
1760898182315027000,6.63502685546875,0.05589412897825241,-0.01695149764418602,0.0977383628487587
1760898182324714200,6.64471435546875,0.0461202897131443,0.0062613640911877155,0.07819069176912308
1760898182334401500,6.654401611328125,0.029016077518463135,0.05024362727999687,0.05253437161445618
1760898182344088800,6.6640888671875,0.0204639695584774,0.09300415962934494,0.026878049597144127
1760898182353775900,6.67377587890625,0.0021380267571657896,0.10888664424419403,-0.004886918235570192
1760898182363463200,6.683463134765625,-0.02718348242342472,0.1003345400094986,-0.04276053607463837
1760898182373150500,6.693150390625,-0.061391908675432205,0.07345648854970932,-0.09407317638397217
1760898182382837500,6.70283740234375,-0.09560033679008484,0.02825249545276165,-0.1588248461484909
1760898182392524800,6.71252490234375,-0.12003492563962936,-0.03894263133406639,-0.23335035145282745
1760898182402212000,6.722212158203125,-0.13103049993515015,-0.0951421856880188,-0.2993237376213074
1760898182411899400,6.7318994140625,-0.12125665694475174,-0.0951421856880188,-0.3384190797805786
1760898182421586400,6.74158642578125,-0.09437860548496246,-0.03649916872382164,-0.3433060050010681
1760898182431273700,6.751273681640625,-0.051618073135614395,0.06490438431501389,-0.3274235129356384
1760898182440961000,6.7609609375,-0.012522728182375431,0.18463388085365295,-0.31642794609069824
1760898182450648000,6.77064794921875,0.00946840364485979,0.3043633699417114,-0.3274235129356384
1760898182460335400,6.78033544921875,0.004581485874950886,0.3874409794807434,-0.37262752652168274
1760898182470022700,6.790022705078125,-0.018631376326084137,0.4192059636116028,-0.4581485986709595
1760898182479710000,6.7997099609375,-0.041844237595796585,0.39965829253196716,-0.5693259835243225
1760898182489397000,6.80939697265625,-0.05283980444073677,0.34834563732147217,-0.675616443157196
1760898182499084300,6.819084228515625,-0.04673115536570549,0.24572035670280457,-0.768467903137207
1760898182508771600,6.828771484375,-0.025961752980947495,0.13332124054431915,-0.8442151546478271
1760898182518459000,6.838458984375,0.016798781231045723,0.12965604662895203,-0.8808670043945312
1760898182528146000,6.84814599609375,0.0668896958231926,0.22495095431804657,-0.861319363117218
1760898182537833200,6.857833251953125,0.10109812021255493,0.3605629503726959,-0.8112284541130066
1760898182547520500,6.8675205078125,0.1230892539024353,0.48273590207099915,-0.7476984858512878
1760898182557207600,6.87720751953125,0.14508038759231567,0.521831214427948,-0.6438514590263367
1760898182566894800,6.886894775390625,0.15118902921676636,0.4558578431606293,-0.5057960152626038
1760898182576582100,6.89658203125,0.15485422313213348,0.30802857875823975,-0.35796675086021423
1760898182586269400,6.90626953125,0.16340632736682892,0.13209950923919678,-0.2309068888425827
1760898182595956500,6.91595654296875,0.17684535682201385,-0.018173227086663246,-0.13072505593299866
1760898182605643800,6.925643798828125,0.16829325258731842,-0.11713331937789917,-0.06108647957444191
1760898182615331000,6.9353310546875,0.1230892539024353,-0.16355904936790466,-0.04520399495959282
1760898182625018400,6.945018310546875,0.05222893878817558,-0.16355904936790466,-0.06963858753442764
1760898182634705400,6.954705322265625,-0.02107483521103859,-0.13179408013820648,-0.10751219838857651
1760898182644392700,6.964392822265625,-0.08949168771505356,-0.06704241037368774,-0.14294235408306122
1760898182654080000,6.974080078125,-0.15668681263923645,-0.002290742937475443,-0.1844811588525772
1760898182663767000,6.98376708984375,-0.21166464686393738,0.030695954337716103,-0.25045454502105713
1760898182673454300,6.993454345703125,-0.23732095956802368,0.014813470654189587,-0.3384190797805786
1760898182683141600,7.0031416015625,-0.23243404924869537,-0.03283398225903511,-0.4324922561645508
1760898182692829000,7.012828857421875,-0.20433427393436432,-0.07559451460838318,-0.5131264328956604
1760898182702516000,7.022515869140625,-0.16157373785972595,-0.07803797721862793,-0.5583304166793823
1760898182712203300,7.032203369140625,-0.11636973917484283,-0.041386090219020844,-0.5558869242668152
1760898182721890600,7.041890625,-0.07971785217523575,0.03436114266514778,-0.5180133581161499
1760898182731577600,7.05157763671875,-0.05406153202056885,0.12721258401870728,-0.46547895669937134
1760898182741265000,7.061264892578125,-0.04673115536570549,0.16508620977401733,-0.4007273018360138
1760898182750952200,7.0709521484375,-0.041844237595796585,0.15897755324840546,-0.3384190797805786
1760898182760639500,7.080639404296875,-0.03940077871084213,0.11743875592947006,-0.28588470816612244
1760898182770326500,7.090326416015625,-0.03940077871084213,0.07101303339004517,-0.24801109731197357
1760898182780013800,7.100013916015625,-0.03451386094093323,0.016035201027989388,-0.22724169492721558
1760898182789701000,7.109701171875,-0.051618073135614395,-0.007177661173045635,-0.23212862014770508
1760898182799388400,7.119388427734375,-0.0772743970155716,0.0038179049734026194,-0.25411975383758545
1760898182809075500,7.129075439453125,-0.09071341902017593,0.02214384824037552,-0.28466299176216125
1760898182818762800,7.1387626953125,-0.09193515032529831,0.02458730712532997,-0.3042106628417969
1760898182828450000,7.148449951171875,-0.09682206809520721,0.029474224895238876,-0.3066541254520416
1760898182838137000,7.15813720703125,-0.09071341902017593,0.05024362727999687,-0.28588470816612244
1760898182847824400,7.167824462890625,-0.08093958348035812,0.09300415962934494,-0.2528980076313019
1760898182857511700,7.17751171875,-0.061391908675432205,0.1406516134738922,-0.2211330533027649
1760898182867199000,7.187198974609375,-0.03329212963581085,0.15775582194328308,-0.1893680840730667
1760898182876886000,7.196885986328125,-0.010079269297420979,0.1418733447790146,-0.15027274191379547
1760898182886573300,7.2065732421875,0.005803215317428112,0.12843431532382965,-0.11484257876873016
1760898182896260600,7.216260498046875,0.013133592903614044,0.1308777779340744,-0.09040798991918564
1760898182905947600,7.22594775390625,0.01802051067352295,0.14309507608413696,-0.07452550530433655
1760898182915635000,7.235635009765625,0.0204639695584774,0.1455385386943817,-0.05742128938436508
1760898182925322200,7.245322265625,0.022907428443431854,0.1357647031545639,-0.03176496922969818
1760898182935009500,7.255009521484375,0.02412915788590908,0.1308777779340744,-0.007330377586185932
1760898182944696600,7.264696533203125,0.0204639695584774,0.12843431532382965,0.013439024798572063
1760898182954384000,7.2743837890625,0.01802051067352295,0.12354740500450134,0.030543239787220955
1760898182964071200,7.2840712890625,0.015577051788568497,0.11866047978401184,0.04520399495959282
1760898182973758500,7.293758544921875,0.01435532234609127,0.11988221108913422,0.05864302068948746
1760898182983445500,7.303445556640625,0.013133592903614044,0.11866047978401184,0.07330377399921417
1760898182993132800,7.3131328125,0.010690134018659592,0.10888664424419403,0.08552107214927673
1760898183002820000,7.322820068359375,0.004581485874950886,0.09422589093446732,0.09529490768909454
1760898183012507400,7.33250732421875,0.0009162971982732415,0.07834340631961823,0.10506874322891235
1760898183022194400,7.3421943359375,-0.0027488914784044027,0.06001746281981468,0.11117739230394363
1760898183031881700,7.3518818359375,-0.003970621153712273,0.03558287397027016,0.11362084746360779
1760898183041569000,7.361569091796875,-0.010079269297420979,0.01847865991294384,0.11362084746360779
1760898183051256300,7.37125634765625,-0.016187917441129684,0.0001527161948615685,0.10751219838857651
1760898183060943400,7.380943359375,-0.019853105768561363,-0.007177661173045635,0.09407317638397217
1760898183070630700,7.390630615234375,-0.022296564653515816,-0.002290742937475443,0.07941242307424545
1760898183080318000,7.40031787109375,-0.025961752980947495,-0.0010690133785828948,0.06352993845939636
1760898183090005000,7.4100048828125,-0.024740023538470268,-0.003512472379952669,0.0513126403093338
1760898183099692300,7.4196923828125,-0.022296564653515816,-0.008399390615522861,0.03787361457943916
1760898183109379600,7.429379638671875,-0.019853105768561363,-0.009621120058000088,0.01954767294228077
1760898183119067000,7.43906689453125,-0.018631376326084137,-0.005955931730568409,0.002443459117785096
1760898183128754000,7.44875390625,-0.022296564653515816,-0.009621120058000088,-0.017104214057326317
1760898183138441200,7.458441162109375,-0.023518294095993042,-0.015729768201708794,-0.034208428114652634
1760898183148128500,7.46812841796875,-0.022296564653515816,-0.01206457894295454,-0.046425722539424896
1760898183157815800,7.47781591796875,-0.022296564653515816,-0.0010690133785828948,-0.0513126403093338
1760898183167502800,7.4875029296875,-0.023518294095993042,-0.003512472379952669,-0.05742128938436508
1760898183177190100,7.497190185546875,-0.022296564653515816,-0.014508038759231567,-0.059864748269319534
1760898183186877400,7.50687744140625,-0.024740023538470268,-0.02916879393160343,-0.06108647957444191
1760898183196564500,7.516564453125,-0.023518294095993042,-0.03405570983886719,-0.05864302068948746
1760898183206251800,7.526251708984375,-0.024740023538470268,-0.03649916872382164,-0.05497783049941063
1760898183215939000,7.53593896484375,-0.025961752980947495,-0.04016435891389847,-0.05497783049941063
1760898183225626400,7.54562646484375,-0.028405211865901947,-0.041386090219020844,-0.056199558079242706
1760898183235313400,7.5553134765625,-0.032070402055978775,-0.047494735568761826,-0.056199558079242706
1760898183245000700,7.565000732421875,-0.0308486707508564,-0.05971203371882439,-0.05253437161445618
1760898183254688000,7.57468798828125,-0.025961752980947495,-0.07192932814359665,-0.043982263654470444
1760898183264375300,7.584375244140625,-0.019853105768561363,-0.08048143237829208,-0.03176496922969818
1760898183274062300,7.594062255859375,-0.014966187067329884,-0.08781181275844574,-0.017104214057326317
1760898183283749600,7.60374951171875,-0.011300998739898205,-0.09636391699314117,-0.001221729558892548
1760898183293437000,7.61343701171875,-0.008857538923621178,-0.10369429737329483,0.013439024798572063
1760898183303124200,7.623124267578125,-0.003970621153712273,-0.11835505068302155,0.026878049597144127
1760898183312811300,7.632811279296875,-0.000305432389723137,-0.13179408013820648,0.040317077189683914
1760898183322498600,7.64249853515625,0.0021380267571657896,-0.13912445306777954,0.04764745384454727
1760898183332185900,7.652185791015625,0.0021380267571657896,-0.1415679156780243,0.050090912729501724
1760898183341873200,7.661873046875,0.0009162971982732415,-0.13790272176265717,0.04764745384454727
1760898183351560200,7.671560302734375,-0.000305432389723137,-0.13301581144332886,0.043982263654470444
1760898183361247500,7.68124755859375,-0.0027488914784044027,-0.12690715491771698,0.040317077189683914
1760898183370934800,7.690934814453125,-0.0015271619195118546,-0.12446369975805283,0.036651886999607086
1760898183380621800,7.700621826171875,-0.0015271619195118546,-0.12202023714780807,0.034208428114652634
1760898183390309000,7.71030908203125,0.0009162971982732415,-0.12202023714780807,0.03543015569448471
1760898183399996400,7.719996337890625,0.0021380267571657896,-0.12324196845293045,0.03543015569448471
1760898183409683700,7.72968359375,0.003359756199643016,-0.1256854236125946,0.036651886999607086
1760898183419370800,7.739370849609375,0.003359756199643016,-0.12935061752796173,0.03787361457943916
1760898183429058000,7.74905810546875,0.004581485874950886,-0.1305723488330841,0.036651886999607086
1760898183438745300,7.758745361328125,0.003359756199643016,-0.1305723488330841,0.03543015569448471
1760898183448432600,7.7684326171875,0.003359756199643016,-0.12935061752796173,0.03176496922969818
1760898183458119700,7.77811962890625,0.004581485874950886,-0.12446369975805283,0.028099779039621353
1760898183467807000,7.787806884765625,0.004581485874950886,-0.11713331937789917,0.021991131827235222
1760898183477494300,7.797494384765625,0.005803215317428112,-0.11346813291311264,0.01588248461484909
1760898183487181600,7.807181640625,0.007024944759905338,-0.11346813291311264,0.010995565913617611
1760898183496868600,7.81686865234375,0.00946840364485979,-0.10735948383808136,0.007330377586185932
1760898183506556000,7.826555908203125,0.011911863461136818,-0.09880737960338593,0.004886918235570192
1760898183516243200,7.8362431640625,0.01435532234609127,-0.08659008145332336,0.004886918235570192
1760898183525930500,7.845930419921875,0.016798781231045723,-0.07559451460838318,0.003665188793092966
1760898183535617500,7.855617431640625,0.015577051788568497,-0.06337722390890121,0.003665188793092966
1760898183545304800,7.865304931640625,0.015577051788568497,-0.05238165333867073,0.002443459117785096
1760898183554992000,7.8749921875,0.01435532234609127,-0.04260781779885292,0.001221729558892548
1760898183564679200,7.88467919921875,0.01435532234609127,-0.03405570983886719,-0.002443459117785096
1760898183574366500,7.894366455078125,0.013133592903614044,-0.02672533318400383,-0.004886918235570192
1760898183584053800,7.9040537109375,0.011911863461136818,-0.021838415414094925,-0.006108647678047419
1760898183593741000,7.913740966796875,0.010690134018659592,-0.018173227086663246,-0.007330377586185932
1760898183603428000,7.923427978515625,0.00946840364485979,-0.015729768201708794,-0.007330377586185932
1760898183613115400,7.933115478515625,0.008246674202382565,-0.010842849500477314,-0.006108647678047419
1760898183622802700,7.942802734375,0.007024944759905338,-0.007177661173045635,-0.004886918235570192
1760898183632490000,7.952489990234375,0.005803215317428112,-0.005955931730568409,-0.002443459117785096
1760898183642177000,7.962177001953125,0.003359756199643016,-0.003512472379952669,0.001221729558892548
1760898183651864300,7.9718642578125,0.003359756199643016,-0.002290742937475443,0.004886918235570192
1760898183661551600,7.981551513671875,0.005803215317428112,-0.0010690133785828948,0.004886918235570192
1760898183671239000,7.991239013671875,0.007024944759905338,0.0001527161948615685,0.004886918235570192
1760898183680926000,8.000926025390624,0.00946840364485979,0.0001527161948615685,0.002443459117785096
1760898183690613200,8.01061328125,0.011911863461136818,0.0001527161948615685,-0.001221729558892548
1760898183700300500,8.020300537109375,0.015577051788568497,-0.002290742937475443,-0.004886918235570192
1760898183709987800,8.02998779296875,0.01802051067352295,-0.0010690133785828948,-0.008552107028663158
1760898183719675000,8.0396748046875,0.0204639695584774,0.0025961752980947495,-0.010995565913617611
1760898183729362200,8.049362060546875,0.021685699000954628,0.007483093533664942,-0.008552107028663158
1760898183739049500,8.059049560546875,0.021685699000954628,0.008704823441803455,-0.006108647678047419
1760898183748736500,8.068736572265625,0.02412915788590908,0.012370011769235134,-0.002443459117785096
1760898183758423800,8.078423828125,0.02412915788590908,0.009926552884280682,0
1760898183768111000,8.088111083984375,0.026572618633508682,0.007483093533664942,0.001221729558892548
1760898183777798400,8.09779833984375,0.02779434807598591,0.0062613640911877155,0.003665188793092966
1760898183787485700,8.107485595703125,0.02779434807598591,-0.004734201822429895,0.004886918235570192
1760898183797172700,8.1171728515625,0.03023780696094036,-0.009621120058000088,0.008552107028663158
1760898183806860000,8.126860107421875,0.029016077518463135,-0.008399390615522861,0.010995565913617611
1760898183816547300,8.13654736328125,0.026572618633508682,-0.009621120058000088,0.014660755172371864
1760898183826234400,8.146234375,0.02412915788590908,-0.005955931730568409,0.018325943499803543
1760898183835921700,8.155921630859375,0.0204639695584774,0.0013744457392022014,0.021991131827235222
1760898183845609000,8.16560888671875,0.016798781231045723,0.0038179049734026194,0.0256563201546669
1760898183855296300,8.175296142578125,0.015577051788568497,0.005039634648710489,0.028099779039621353
1760898183864983300,8.1849833984375,0.01435532234609127,0.0038179049734026194,0.030543239787220955
1760898183874670600,8.194670654296875,0.013133592903614044,0.0013744457392022014,0.030543239787220955
1760898183884358000,8.20435791015625,0.011911863461136818,-0.003512472379952669,0.03176496922969818
1760898183894045200,8.214045166015625,0.010690134018659592,-0.010842849500477314,0.03176496922969818
1760898183903732200,8.223732177734375,0.010690134018659592,-0.013286309316754341,0.030543239787220955
1760898183913419500,8.23341943359375,0.00946840364485979,-0.014508038759231567,0.02932151034474373
1760898183923106800,8.24310693359375,0.008246674202382565,-0.018173227086663246,0.03176496922969818
1760898183932794000,8.252794189453125,0.007024944759905338,-0.021838415414094925,0.03298669680953026
1760898183942481200,8.262481201171875,0.007024944759905338,-0.02306014485657215,0.03176496922969818
1760898183952168400,8.27216845703125,0.008246674202382565,-0.02306014485657215,0.03176496922969818
1760898183961855700,8.281855712890625,0.008246674202382565,-0.02672533318400383,0.030543239787220955
1760898183971543000,8.29154296875,0.008246674202382565,-0.02916879393160343,0.030543239787220955
1760898183981230000,8.30122998046875,0.00946840364485979,-0.02916879393160343,0.030543239787220955
1760898183990917400,8.31091748046875,0.00946840364485979,-0.030390523374080658,0.02932151034474373
1760898184000604700,8.320604736328125,0.008246674202382565,-0.030390523374080658,0.026878049597144127
1760898184010292000,8.3302919921875,0.008246674202382565,-0.031612250953912735,0.023212861269712448
1760898184019979000,8.33997900390625,0.008246674202382565,-0.02306014485657215,0.020769402384757996
1760898184029666300,8.349666259765625,0.007024944759905338,-0.02306014485657215,0.020769402384757996
1760898184039353600,8.359353515625,0.007024944759905338,-0.02672533318400383,0.020769402384757996
1760898184049041000,8.369041015625,0.004581485874950886,-0.02916879393160343,0.017104214057326317
1760898184058728000,8.37872802734375,0.003359756199643016,-0.018173227086663246,0.017104214057326317
1760898184068415200,8.388415283203125,0.0009162971982732415,-0.008399390615522861,0.017104214057326317
1760898184078102500,8.3981025390625,0.0021380267571657896,-0.007177661173045635,0.017104214057326317
1760898184087789800,8.407789794921875,0.003359756199643016,-0.003512472379952669,0.013439024798572063
1760898184097476900,8.417476806640625,0.004581485874950886,0.0013744457392022014,0.012217295356094837
1760898184107164200,8.4271640625,0.005803215317428112,0.0038179049734026194,0.012217295356094837
1760898184116851500,8.4368515625,0.005803215317428112,0.0013744457392022014,0.009773836471140385
1760898184126538800,8.446538818359375,0.008246674202382565,0.007483093533664942,0.009773836471140385
1760898184136225800,8.456225830078125,0.00946840364485979,0.012370011769235134,0.009773836471140385
1760898184145913000,8.4659130859375,0.00946840364485979,0.016035201027989388,0.009773836471140385
1760898184155600400,8.475600341796875,0.011911863461136818,0.012370011769235134,0.008552107028663158
1760898184165287700,8.48528759765625,0.011911863461136818,0.017256930470466614,0.008552107028663158
1760898184174974700,8.494974609375,0.011911863461136818,0.020922118797898293,0.008552107028663158
1760898184184662000,8.504662109375,0.013133592903614044,0.023365577682852745,0.007330377586185932
1760898184194349300,8.514349365234375,0.01435532234609127,0.023365577682852745,0.006108647678047419
1760898184204036400,8.524036376953125,0.010690134018659592,0.012370011769235134,0
1760898184213723600,8.5337236328125,0.011911863461136818,0.020922118797898293,-0.002443459117785096
1760898184223411000,8.543410888671875,0.010690134018659592,0.029474224895238876,-0.002443459117785096
1760898184233098200,8.55309814453125,0.008246674202382565,0.019700389355421066,-0.001221729558892548
1760898184242785500,8.56278564453125,0.007024944759905338,0.01359174121171236,-0.002443459117785096
1760898184252472600,8.57247265625,0.0021380267571657896,0.0025961752980947495,-0.008552107028663158
1760898184262160000,8.582159912109375,0.003359756199643016,0.008704823441803455,-0.008552107028663158
1760898184271847200,8.59184716796875,0.003359756199643016,0.007483093533664942,-0.006108647678047419
1760898184281534500,8.601534423828125,0.0021380267571657896,-0.015729768201708794,-0.008552107028663158
1760898184291221500,8.611221435546875,0.003359756199643016,-0.02916879393160343,-0.014660755172371864
1760898184300908800,8.62090869140625,0.0009162971982732415,-0.03405570983886719,-0.018325943499803543
1760898184310596000,8.63059619140625,0.005803215317428112,-0.037720900028944016,-0.014660755172371864
1760898184320283400,8.640283447265626,0.010690134018659592,-0.043829549103975296,-0.007330377586185932
1760898184329970400,8.649970458984376,0.01435532234609127,-0.057268574833869934,0
1760898184339657700,8.65965771484375,0.019242240116000175,-0.06215549260377884,0.006108647678047419
1760898184349345000,8.669344970703126,0.019242240116000175,-0.0694858655333519,0.013439024798572063
1760898184359032300,8.6790322265625,0.019242240116000175,-0.0902552679181099,0.017104214057326317
1760898184368719400,8.68871923828125,0.021685699000954628,-0.0951421856880188,0.024434590712189674
1760898184378406700,8.69840673828125,0.0204639695584774,-0.09636391699314117,0.03298669680953026
1760898184388094000,8.708093994140626,0.016798781231045723,-0.10735948383808136,0.040317077189683914
1760898184397781200,8.71778125,0.015577051788568497,-0.10980294644832611,0.04520399495959282
1760898184407468300,8.72746826171875,0.00946840364485979,-0.11346813291311264,0.050090912729501724
1760898184417155600,8.737155517578126,0.003359756199643016,-0.12324196845293045,0.05253437161445618
1760898184426843000,8.7468427734375,-0.0015271619195118546,-0.12446369975805283,0.05864302068948746
1760898184436530200,8.7565302734375,-0.0027488914784044027,-0.12446369975805283,0.06352993845939636
1760898184446217200,8.76621728515625,-0.006414080038666725,-0.12935061752796173,0.06719512492418289
1760898184455904500,8.775904541015626,-0.010079269297420979,-0.1366809904575348,0.06963858753442764
1760898184465591800,8.785591796875,-0.014966187067329884,-0.1415679156780243,0.07086031138896942
1760898184475279000,8.795279052734376,-0.016187917441129684,-0.1415679156780243,0.07086031138896942
1760898184484966100,8.804966064453126,-0.01740964688360691,-0.13790272176265717,0.06841685622930527
1760898184494653400,8.8146533203125,-0.013744457624852657,-0.1415679156780243,0.06352993845939636
1760898184504340700,8.8243408203125,-0.016187917441129684,-0.15745039284229279,0.06597339361906052
1760898184514028000,8.834028076171874,-0.016187917441129684,-0.17577634751796722,0.07086031138896942
1760898184523715000,8.843715087890626,-0.012522728182375431,-0.18677189946174622,0.06841685622930527
1760898184533402400,8.85340234375,-0.007635809946805239,-0.1928805559873581,0.06108647957444191
1760898184543089700,8.863089599609374,-0.006414080038666725,-0.19410228729248047,0.053756099194288254
1760898184552777000,8.87277685546875,-0.005192350596189499,-0.19043709337711334,0.046425722539424896
1760898184562464300,8.88246435546875,-0.003970621153712273,-0.19043709337711334,0.043982263654470444
1760898184572151300,8.8921513671875,-0.000305432389723137,-0.1928805559873581,0.04276053607463837
1760898184581838600,8.901838623046874,0.003359756199643016,-0.19654574990272522,0.040317077189683914
1760898184591526000,8.91152587890625,0.007024944759905338,-0.20143266022205353,0.03787361457943916
1760898184601213000,8.921212890625,0.00946840364485979,-0.20387612283229828,0.03176496922969818
1760898184610900200,8.930900146484374,0.010690134018659592,-0.2026543915271759,0.024434590712189674
1760898184620587500,8.94058740234375,0.016798781231045723,-0.20631958544254303,0.023212861269712448
1760898184630274800,8.95027490234375,0.01802051067352295,-0.20998476445674896,0.020769402384757996
1760898184639962000,8.959962158203124,0.021685699000954628,-0.20998476445674896,0.01954767294228077
1760898184649649200,8.969649169921874,0.022907428443431854,-0.2075413018465042,0.017104214057326317
1760898184659336400,8.97933642578125,0.025350889191031456,-0.19410228729248047,0.01588248461484909
1760898184669023700,8.989023681640624,0.026572618633508682,-0.18677189946174622,0.017104214057326317
1760898184678710800,8.998710693359374,0.025350889191031456,-0.18677189946174622,0.017104214057326317
1760898184688398000,9.008398193359374,0.022907428443431854,-0.17944152653217316,0.014660755172371864
1760898184698085400,9.01808544921875,0.021685699000954628,-0.1623373180627823,0.013439024798572063
1760898184707772700,9.027772705078124,0.01802051067352295,-0.1513417512178421,0.012217295356094837
1760898184717460000,9.0374599609375,0.008246674202382565,-0.1464548259973526,0.010995565913617611
1760898184727147000,9.04714697265625,0.0021380267571657896,-0.14889828860759735,0.013439024798572063
1760898184736834300,9.056834228515624,-0.003970621153712273,-0.14401137828826904,0.014660755172371864
1760898184746521600,9.066521484375,-0.008857538923621178,-0.13179408013820648,0.012217295356094837
1760898184756208600,9.076208740234375,-0.013744457624852657,-0.11957678198814392,0.010995565913617611
1760898184765896000,9.08589599609375,-0.016187917441129684,-0.11102467030286789,0.010995565913617611
1760898184775583200,9.095583251953125,-0.019853105768561363,-0.10247256606817245,0.012217295356094837
1760898184785270500,9.1052705078125,-0.02107483521103859,-0.08903354406356812,0.010995565913617611
1760898184794957800,9.114957763671875,-0.022296564653515816,-0.0792597085237503,0.008552107028663158
1760898184804644900,9.124644775390625,-0.022296564653515816,-0.06826414167881012,0.006108647678047419
1760898184814332200,9.134332275390625,-0.02107483521103859,-0.060933761298656464,0.004886918235570192
1760898184824019500,9.14401953125,-0.02107483521103859,-0.043829549103975296,-0.001221729558892548
1760898184833706800,9.153706787109375,-0.018631376326084137,-0.030390523374080658,-0.003665188793092966
1760898184843393800,9.163393798828125,-0.016187917441129684,-0.024281874299049377,-0.003665188793092966
1760898184853081000,9.1730810546875,-0.013744457624852657,-0.018173227086663246,-0.001221729558892548
1760898184862768400,9.182768310546875,-0.010079269297420979,-0.008399390615522861,-0.001221729558892548
1760898184872455700,9.19245556640625,-0.006414080038666725,0.0001527161948615685,-0.002443459117785096
1760898184882142700,9.202142822265625,0.0009162971982732415,-0.0010690133785828948,0.001221729558892548
1760898184891830000,9.211830078125,0.005803215317428112,-0.005955931730568409,0.006108647678047419
1760898184901517300,9.221517333984375,0.010690134018659592,-0.005955931730568409,0.008552107028663158
1760898184911204600,9.23120458984375,0.013133592903614044,-0.0010690133785828948,0.008552107028663158
1760898184920892000,9.240891845703125,0.015577051788568497,0.0038179049734026194,0.008552107028663158
1760898184930579000,9.250578857421875,0.01802051067352295,0.012370011769235134,0.009773836471140385
1760898184940266200,9.260266357421875,0.019242240116000175,0.01847865991294384,0.010995565913617611
1760898184949953500,9.26995361328125,0.0204639695584774,0.025809036567807198,0.012217295356094837
1760898184959640800,9.279640869140625,0.0204639695584774,0.03436114266514778,0.012217295356094837
1760898184969327900,9.289327880859375,0.019242240116000175,0.042913250625133514,0.010995565913617611
1760898184979015200,9.29901513671875,0.01802051067352295,0.05146535858511925,0.008552107028663158
1760898184988702500,9.308702392578125,0.015577051788568497,0.06001746281981468,0.004886918235570192
1760898184998389800,9.3183896484375,0.01435532234609127,0.06490438431501389,0.001221729558892548
1760898185008076800,9.328076904296875,0.013133592903614044,0.06490438431501389,-0.002443459117785096
1760898185017764000,9.33776416015625,0.01435532234609127,0.06001746281981468,-0.003665188793092966
1760898185027451400,9.347451416015625,0.013133592903614044,0.06001746281981468,-0.007330377586185932
1760898185037138700,9.357138671875,0.010690134018659592,0.06246092543005943,-0.010995565913617611
1760898185046825700,9.36682568359375,0.008246674202382565,0.06001746281981468,-0.014660755172371864
1760898185056513000,9.376512939453125,0.003359756199643016,0.05757400393486023,-0.018325943499803543
1760898185066200300,9.386200439453125,-0.0015271619195118546,0.058795735239982605,-0.0256563201546669
1760898185075887600,9.3958876953125,-0.006414080038666725,0.058795735239982605,-0.02932151034474373
1760898185085575000,9.405574951171875,-0.011300998739898205,0.05635227635502815,-0.03298669680953026
1760898185095262000,9.415261962890625,-0.016187917441129684,0.05757400393486023,-0.036651886999607086
1760898185114636500,9.434636474609375,-0.018631376326084137,0.05757400393486023,-0.040317077189683914
1760898185124323800,9.44432373046875,-0.01740964688360691,0.05757400393486023,-0.040317077189683914
1760898185134011000,9.454010986328125,-0.016187917441129684,0.05635227635502815,-0.040317077189683914
1760898185143698200,9.4636982421875,-0.014966187067329884,0.058795735239982605,-0.03909534588456154
1760898185153385500,9.473385498046875,-0.013744457624852657,0.058795735239982605,-0.03787361457943916
1760898185163072800,9.48307275390625,-0.012522728182375431,0.05635227635502815,-0.03298669680953026
1760898185172759800,9.492759765625,-0.011300998739898205,0.05757400393486023,-0.02932151034474373
1760898185182447000,9.502447021484375,-0.010079269297420979,0.06246092543005943,-0.026878049597144127
1760898185192134400,9.512134521484375,-0.008857538923621178,0.06734783947467804,-0.024434590712189674
1760898185201821700,9.52182177734375,-0.006414080038666725,0.06856957077980042,-0.021991131827235222
1760898185211509000,9.531509033203125,-0.003970621153712273,0.06856957077980042,-0.020769402384757996
1760898185221196000,9.541196044921875,-0.0027488914784044027,0.06856957077980042,-0.017104214057326317
1760898185230883300,9.55088330078125,0.0009162971982732415,0.06490438431501389,-0.014660755172371864
1760898185250258000,9.5702578125,0.004581485874950886,0.06001746281981468,-0.009773836471140385
1760898185259945000,9.579945068359375,0.004581485874950886,0.06001746281981468,-0.009773836471140385
1760898185269632300,9.58963232421875,0.004581485874950886,0.06001746281981468,-0.009773836471140385
1760898185279319600,9.599319580078125,0.005803215317428112,0.05757400393486023,-0.010995565913617611
1760898185289006800,9.6090068359375,0.004581485874950886,0.05513054504990578,-0.012217295356094837
1760898185298694100,9.618694091796876,0.004581485874950886,0.0539088174700737,-0.013439024798572063
1760898185308381200,9.628381103515625,0.004581485874950886,0.05024362727999687,-0.014660755172371864
1760898185318068500,9.638068359375,0.003359756199643016,0.049021899700164795,-0.01588248461484909
1760898185327755800,9.647755859375,0.0021380267571657896,0.04535670951008797,-0.018325943499803543
1760898185337443000,9.657443115234376,0.003359756199643016,0.04046979174017906,-0.01954767294228077
1760898185347130000,9.667130126953126,0.003359756199643016,0.03436114266514778,-0.018325943499803543
1760898185356817400,9.6768173828125,0.0021380267571657896,0.027030766010284424,-0.017104214057326317
1760898185366504700,9.686504638671876,0.0009162971982732415,0.023365577682852745,-0.014660755172371864
1760898185376192000,9.69619189453125,0.0009162971982732415,0.02214384824037552,-0.013439024798572063
1760898185385879300,9.70587939453125,0.0009162971982732415,0.01847865991294384,-0.012217295356094837
1760898185395566300,9.71556640625,0.0009162971982732415,0.014813470654189587,-0.009773836471140385
1760898185405253600,9.725253662109376,0.003359756199643016,0.008704823441803455,-0.008552107028663158
1760898185414941000,9.73494091796875,0.004581485874950886,0.0013744457392022014,-0.004886918235570192
1760898185424628200,9.744628173828126,0.005803215317428112,-0.007177661173045635,0
1760898185434315300,9.754315185546876,0.005803215317428112,-0.014508038759231567,0.003665188793092966
1760898185444002600,9.76400244140625,0.004581485874950886,-0.018173227086663246,0.007330377586185932
1760898185453689900,9.77368994140625,0.003359756199643016,-0.024281874299049377,0.009773836471140385
1760898185463377200,9.783377197265626,0.0021380267571657896,-0.024281874299049377,0.009773836471140385
1760898185473064400,9.793064453125,-0.000305432389723137,-0.021838415414094925,0.007330377586185932
1760898185482751500,9.80275146484375,-0.000305432389723137,-0.025503603741526604,0.008552107028663158
1760898185492438800,9.812438720703126,0.0009162971982732415,-0.03527744114398956,0.012217295356094837
1760898185502126000,9.8221259765625,-0.000305432389723137,-0.043829549103975296,0.013439024798572063
1760898185511813400,9.8318134765625,-0.000305432389723137,-0.04627300798892975,0.013439024798572063
1760898185521500400,9.84150048828125,-0.0015271619195118546,-0.047494735568761826,0.013439024798572063
1760898185531187700,9.851187744140624,-0.0015271619195118546,-0.051159925758838654,0.014660755172371864
1760898185540875000,9.860875,-0.0027488914784044027,-0.05482511222362518,0.01588248461484909
1760898185550562300,9.870562255859374,-0.006414080038666725,-0.05482511222362518,0.014660755172371864
1760898185560249600,9.88024951171875,-0.008857538923621178,-0.05238165333867073,0.01588248461484909
1760898185569936600,9.8899365234375,-0.011300998739898205,-0.051159925758838654,0.01588248461484909
1760898185579624000,9.8996240234375,-0.016187917441129684,-0.04505127668380737,0.014660755172371864
1760898185589311200,9.909311279296874,-0.018631376326084137,-0.03894263133406639,0.013439024798572063
1760898185598998500,9.91899853515625,-0.018631376326084137,-0.03405570983886719,0.013439024798572063
1760898185608685600,9.928685546875,-0.019853105768561363,-0.031612250953912735,0.010995565913617611
1760898185618372900,9.938372802734374,-0.01740964688360691,-0.02306014485657215,0.008552107028663158
1760898185628060200,9.94806005859375,-0.013744457624852657,-0.018173227086663246,0.007330377586185932
1760898185637747500,9.95774755859375,-0.010079269297420979,-0.0206166859716177,0.008552107028663158
1760898185647434800,9.967434814453124,-0.005192350596189499,-0.02306014485657215,0.008552107028663158
1760898185657121800,9.977121826171874,-0.0015271619195118546,-0.0206166859716177,0.009773836471140385
1760898185666809000,9.98680908203125,-0.000305432389723137,-0.01695149764418602,0.010995565913617611
1760898185676496400,9.996496337890624,0.0021380267571657896,-0.014508038759231567,0.010995565913617611
1760898185686183700,10.00618359375,0.004581485874950886,-0.01206457894295454,0.010995565913617611
1760898185695870700,10.01587060546875,0.005803215317428112,-0.010842849500477314,0.012217295356094837
1760898185705558000,10.02555810546875,0.007024944759905338,-0.009621120058000088,0.010995565913617611
1760898185715245300,10.035245361328125,0.007024944759905338,-0.01206457894295454,0.007330377586185932
1760898185724932600,10.0449326171875,0.00946840364485979,-0.009621120058000088,0.004886918235570192
1760898185734620000,10.054619873046875,0.010690134018659592,-0.010842849500477314,0.003665188793092966
1760898185744307000,10.064306884765625,0.010690134018659592,-0.01695149764418602,0.003665188793092966
1760898185753994200,10.073994140625,0.011911863461136818,-0.0206166859716177,0.003665188793092966
1760898185763681500,10.083681640625,0.010690134018659592,-0.019394956529140472,0.002443459117785096
1760898185773368800,10.093368896484375,0.008246674202382565,-0.01695149764418602,0.001221729558892548
1760898185783056100,10.10305615234375,0.007024944759905338,-0.01695149764418602,0
1760898185792743200,10.1127431640625,0.007024944759905338,-0.014508038759231567,0.001221729558892548
1760898185802430500,10.122430419921875,0.005803215317428112,-0.015729768201708794,0.002443459117785096
1760898185812117800,10.13211767578125,0.005803215317428112,-0.0206166859716177,0.002443459117785096
1760898185821805000,10.14180517578125,0.007024944759905338,-0.0206166859716177,0.002443459117785096
1760898185831492000,10.1514921875,0.007024944759905338,-0.02672533318400383,0
1760898185841179400,10.161179443359375,0.00946840364485979,-0.024281874299049377,0.001221729558892548
1760898185850866700,10.17086669921875,0.010690134018659592,-0.0206166859716177,0.003665188793092966
1760898185860554000,10.180553955078125,0.01435532234609127,-0.024281874299049377,0.004886918235570192
1760898185870241300,10.1902412109375,0.016798781231045723,-0.02672533318400383,0.003665188793092966
1760898185879928600,10.199928466796875,0.019242240116000175,-0.015729768201708794,0.004886918235570192
1760898185889615600,10.20961572265625,0.021685699000954628,-0.009621120058000088,0.006108647678047419
1760898185899303000,10.219302978515625,0.025350889191031456,-0.010842849500477314,0.004886918235570192
1760898185908990200,10.228990234375,0.029016077518463135,-0.0010690133785828948,0.003665188793092966
1760898185918677500,10.238677490234375,0.03145953640341759,0.007483093533664942,0.002443459117785096
1760898185928364500,10.248364501953125,0.03390299528837204,0.016035201027989388,-0.001221729558892548
1760898185938051800,10.2580517578125,0.03756818547844887,0.020922118797898293,-0.007330377586185932
1760898185947739100,10.2677392578125,0.03756818547844887,0.023365577682852745,-0.012217295356094837
1760898185957426400,10.277426513671875,0.04001164436340332,0.023365577682852745,-0.01588248461484909
1760898185967113700,10.28711376953125,0.0412333719432354,0.025809036567807198,-0.018325943499803543
1760898185976800800,10.29680078125,0.04367683082818985,0.027030766010284424,-0.017104214057326317
1760898185986488000,10.306488037109375,0.0461202897131443,0.02458730712532997,-0.008552107028663158
1760898185996175400,10.31617529296875,0.04978547990322113,0.01847865991294384,0.003665188793092966
1760898186005862700,10.325862548828125,0.05222893878817558,0.008704823441803455,0.017104214057326317
1760898186015549700,10.3355498046875,0.05589412897825241,-0.003512472379952669,0.034208428114652634
1760898186025237000,10.345237060546875,0.05833758786320686,-0.018173227086663246,0.05742128938436508
1760898186034924300,10.35492431640625,0.06322450190782547,-0.03894263133406639,0.08307760953903198
1760898186044611600,10.364611572265625,0.06444623321294785,-0.06337722390890121,0.10384701192378998
1760898186054299000,10.374298828125,0.06200277432799339,-0.08170316368341446,0.11606431007385254
1760898186063986200,10.383986083984375,0.05711585655808449,-0.08903354406356812,0.11484257876873016
1760898186073673200,10.393673095703125,0.04978547990322113,-0.08048143237829208,0.10506874322891235
1760898186083360500,10.403360595703125,0.044898562133312225,-0.064598947763443,0.09285144507884979
1760898186093047800,10.4130478515625,0.0412333719432354,-0.05849030241370201,0.0818558782339096
1760898186102735000,10.422735107421875,0.0412333719432354,-0.060933761298656464,0.07086031138896942
1760898186112422100,10.432422119140625,0.04001164436340332,-0.064598947763443,0.056199558079242706
1760898186122109400,10.442109375,0.04001164436340332,-0.06337722390890121,0.043982263654470444
1760898186131796700,10.451796630859375,0.03634645417332649,-0.060933761298656464,0.03787361457943916
1760898186141484000,10.461484130859375,0.03634645417332649,-0.05971203371882439,0.034208428114652634
1760898186151171300,10.47117138671875,0.03634645417332649,-0.060933761298656464,0.03176496922969818
1760898186160858600,10.480858642578125,0.038789913058280945,-0.060933761298656464,0.02932151034474373
1760898186170545700,10.490545654296875,0.04001164436340332,-0.05238165333867073,0.0256563201546669
1760898186180233000,10.50023291015625,0.04001164436340332,-0.030390523374080658,0.020769402384757996
1760898186189920300,10.509920166015625,0.0412333719432354,0.0013744457392022014,0.010995565913617611
1760898186199607600,10.519607666015625,0.0461202897131443,0.030695954337716103,-0.004886918235570192
1760898186209294600,10.529294677734375,0.05100720748305321,0.049021899700164795,-0.024434590712189674
1760898186218982000,10.53898193359375,0.05833758786320686,0.0539088174700737,-0.04520399495959282
1760898186228669200,10.548669189453125,0.06566796451807022,0.05757400393486023,-0.06108647957444191
1760898186238356500,10.5583564453125,0.0717766135931015,0.07101303339004517,-0.0720820426940918
1760898186248043800,10.568043701171876,0.07788526266813278,0.1003345400094986,-0.07819069176912308
1760898186257731000,10.57773095703125,0.08399390429258347,0.1357647031545639,-0.08063415437936783
1760898186267418000,10.587418212890626,0.08888082206249237,0.15775582194328308,-0.08674279600381851
1760898186277105400,10.59710546875,0.09621120244264603,0.17974695563316345,-0.09040798991918564
1760898186286792700,10.606792724609376,0.10354158282279968,0.18829907476902008,-0.08796452730894089
1760898186296480000,10.61647998046875,0.10598503798246384,0.17486004531383514,-0.08674279600381851
1760898186306167000,10.6261669921875,0.10965022444725037,0.1467602699995041,-0.08918625861406326
1760898186315854300,10.635854248046876,0.10231985151767731,0.10888664424419403,-0.08796452730894089
1760898186325541600,10.645541748046876,0.08765909820795059,0.1052214577794075,-0.0818558782339096
1760898186335229000,10.65522900390625,0.0766635313630104,0.14309507608413696,-0.09040798991918564
1760898186344916200,10.664916259765626,0.06444623321294785,0.18585561215877533,-0.11362084746360779
1760898186354603500,10.674603515625,0.05100720748305321,0.21029019355773926,-0.14049890637397766
1760898186364290600,10.68429052734375,0.03145953640341759,0.21395538747310638,-0.1588248461484909
1760898186373977900,10.693977783203126,0.015577051788568497,0.19685117900371552,-0.16737695038318634
1760898186383665200,10.7036650390625,0.013133592903614044,0.14920371770858765,-0.16859868168830872
1760898186393352400,10.7133525390625,0.0021380267571657896,0.09911280870437622,-0.1490510106086731
1760898186403039700,10.723039794921876,-0.014966187067329884,0.06734783947467804,-0.12217295914888382
1760898186412726800,10.732726806640626,-0.035735588520765305,-0.003512472379952669,-0.10751219838857651
1760898186422414000,10.7424140625,-0.07483093440532684,-0.06704241037368774,-0.07452550530433655
1760898186432101400,10.752101318359376,-0.11148282140493393,-0.1049160286784172,-0.059864748269319534
1760898186441788700,10.76178857421875,-0.14691297709941864,-0.12935061752796173,-0.06719512492418289
1760898186451476000,10.77147607421875,-0.18600831925868988,-0.14523309469223022,-0.0769689604640007
1760898186461163300,10.781163330078124,-0.23243404924869537,-0.13301581144332886,-0.06841685622930527
1760898186470850300,10.790850341796874,-0.2568686306476593,-0.10980294644832611,-0.03909534588456154
1760898186480537600,10.80053759765625,-0.27030766010284424,-0.13179408013820648,0.007330377586185932
1760898186490225000,10.810224853515624,-0.272751122713089,-0.1623373180627823,0.056199558079242706
1760898186499912200,10.819912109375,-0.2605338394641876,-0.16478078067302704,0.1026252806186676
1760898186509599200,10.82959912109375,-0.23854269087314606,-0.11835505068302155,0.16737695038318634
1760898186519286500,10.83928662109375,-0.21899501979351044,-0.03527744114398956,0.2516762912273407
1760898186528973800,10.848973876953124,-0.20922118425369263,0.05513054504990578,0.328645259141922
1760898186538661000,10.8586611328125,-0.20311254262924194,0.1308777779340744,0.38240134716033936
1760898186548348400,10.868348388671874,-0.18723005056381226,0.1821904182434082,0.43860089778900146
1760898186558035700,10.87803564453125,-0.12736530601978302,0.1821904182434082,0.516791582107544
1760898186567722800,10.88772265625,-0.04917461425065994,0.15409064292907715,0.6328558921813965
1760898186577410000,10.89741015625,0.02779434807598591,0.08567378669977188,0.748920202255249
1760898186587097300,10.907097412109374,0.11698060482740402,-0.06704241037368774,0.8112284541130066
1760898186596784600,10.91678466796875,0.1951712965965271,-0.3052796721458435,0.8148936033248901
1760898186606472000,10.926471923828124,0.28069236874580383,-0.6217076182365417,0.7660244107246399
1760898186616159000,10.936158935546874,0.34788748621940613,-0.8868229389190674,0.6805033683776855
1760898186625846300,10.94584619140625,0.3698786199092865,-0.9894482493400574,0.5790998339653015
1760898186635533600,10.955533447265625,0.38331764936447144,-0.939357340335846,0.4728093445301056
1760898186645220900,10.965220947265625,0.3601047992706299,-0.7756455540657043,0.3970620930194855
1760898186654908200,10.974908203125,0.2782489061355591,-0.5288561582565308,0.37629270553588867
1760898186664595200,10.98459521484375,0.18661919236183167,-0.24297146499156952,0.3970620930194855
1760898186674282500,10.994282470703125,0.18661919236183167,0.11866047978401184,0.3970620930194855
1760898186683969800,11.0039697265625,0.15729768574237823,0.47174033522605896,0.43982264399528503
1760898186693657000,11.013656982421875,0.04734202101826668,0.7234166264533997,0.5021308660507202
1760898186703344400,11.023344482421875,-0.05283980444073677,0.7392991185188293,0.48013970255851746
1760898186713031700,11.03303173828125,-0.11026109009981155,0.5462658405303955,0.37140578031539917
1760898186722718700,11.04271875,-0.10537417232990265,0.2897026240825653,0.26022839546203613
1760898186732406000,11.052406005859375,-0.061391908675432205,0.10888664424419403,0.2309068888425827
1760898186742093300,11.06209326171875,0.004581485874950886,0.06123919412493706,0.27000224590301514
1760898186751780600,11.071780517578125,0.06933315098285675,0.12232567369937897,0.3176496922969818
1760898186761468000,11.081468017578125,0.09498947113752365,0.22617268562316895,0.3445277214050293
1760898186771155000,11.091155029296875,0.12431098520755768,0.32391104102134705,0.33108872175216675
1760898186780842200,11.10084228515625,0.15729768574237823,0.39110618829727173,0.27977606654167175
1760898186790529500,11.110529541015625,0.15729768574237823,0.42653632164001465,0.21502439677715302
1760898186800216800,11.120216796875,0.14141519367694855,0.41554075479507446,0.15149445831775665
1760898186809904000,11.129904052734375,0.13164135813713074,0.3666715919971466,0.09407317638397217
1760898186819591400,11.13959130859375,0.1279761642217636,0.3104720115661621,0.05497783049941063
1760898186829278700,11.14927880859375,0.12064579129219055,0.2799287736415863,0.04153880476951599
1760898186838965800,11.1589658203125,0.11453714966773987,0.29336780309677124,0.03787361457943916
1760898186848653000,11.168653076171875,0.10842850059270859,0.30314165353775024,0.043982263654470444
1760898186858340400,11.17834033203125,0.10231985151767731,0.31902414560317993,0.05253437161445618
1760898186868027600,11.188027587890625,0.10598503798246384,0.3727802336215973,0.043982263654470444
1760898186877715000,11.19771484375,0.11209368705749512,0.448527455329895,0.028099779039621353
1760898186887402000,11.207402099609375,0.11331541836261749,0.5120574235916138,0.01588248461484909
1760898186897089300,11.21708935546875,0.10965022444725037,0.5364919900894165,-0.001221729558892548
1760898186906776600,11.226776611328125,0.09865466505289078,0.5303833484649658,-0.03909534588456154
1760898186916463900,11.2364638671875,0.09010255336761475,0.4741837978363037,-0.10018182545900345
1760898186926151200,11.246151123046875,0.07055488228797913,0.3935496211051941,-0.1649334877729416
1760898186935838500,11.25583837890625,0.04367683082818985,0.3825540542602539,-0.22968515753746033
1760898186945525500,11.265525390625,0.026572618633508682,0.4179842174053192,-0.27977606654167175
1760898186955212800,11.275212890625,0.010690134018659592,0.43142324686050415,-0.3176496922969818
1760898186964900000,11.284900146484375,-0.008857538923621178,0.4130973219871521,-0.35063639283180237
1760898186974587400,11.29458740234375,-0.016187917441129684,0.388662725687027,-0.3652971386909485
1760898186984274700,11.304274658203125,0.011911863461136818,0.33368489146232605,-0.34208428859710693
1760898186993962000,11.3139619140625,0.06322450190782547,0.26648977398872375,-0.2883281707763672
1760898187003649000,11.32364892578125,0.12064579129219055,0.23472478985786438,-0.21868959069252014
1760898187013336300,11.33333642578125,0.1646280586719513,0.2530507445335388,-0.16737695038318634
1760898187023023600,11.343023681640625,0.19150610268115997,0.29703301191329956,-0.1490510106086731
1760898187032711000,11.3527109375,0.21349723637104034,0.3520108163356781,-0.16004657745361328
1760898187042398200,11.362398193359375,0.22327107191085815,0.4130973219871521,-0.1905898153781891
1760898187052085500,11.37208544921875,0.2208276242017746,0.4741837978363037,-0.22968515753746033
1760898187061772500,11.3817724609375,0.20372340083122253,0.5328267812728882,-0.2663370370864868
1760898187071459800,11.3914599609375,0.16584978997707367,0.5951350331306458,-0.30054548382759094
1760898187081147100,11.401147216796875,0.11453714966773987,0.652556300163269,-0.32620179653167725
1760898187090834400,11.41083447265625,0.05833758786320686,0.6708822250366211,-0.3237583339214325
1760898187100521700,11.420521728515626,0.003359756199643016,0.6391173005104065,-0.2993237376213074
1760898187110209000,11.430208984375,-0.03451386094093323,0.5755873322486877,-0.277332603931427
1760898187119896000,11.43989599609375,-0.04917461425065994,0.503505289554596,-0.2626718580722809
1760898187129583400,11.449583251953126,-0.04550942778587341,0.43753188848495483,-0.24556763470172882
1760898187139270700,11.459270751953126,-0.024740023538470268,0.3923279047012329,-0.21380266547203064
1760898187148958000,11.4689580078125,0.013133592903614044,0.3776671588420868,-0.17226386070251465
1760898187158645200,11.478645263671876,0.060781046748161316,0.39110618829727173,-0.13194678723812103
1760898187168332500,11.48833251953125,0.10598503798246384,0.41187557578086853,-0.10506874322891235
1760898187178019600,11.49801953125,0.1389717310667038,0.4277580678462982,-0.1026252806186676
1760898187197394200,11.517394287109376,0.16340632736682892,0.4436405599117279,-0.14049890637397766
1760898187207081500,11.52708154296875,0.15607595443725586,0.4399753510951996,-0.16859868168830872
1760898187216768800,11.536768798828126,0.1389717310667038,0.41676250100135803,-0.19181154668331146
1760898187226456000,11.5464560546875,0.129197895526886,0.3862192630767822,-0.19425499439239502
1760898187236143400,11.556143310546876,0.12064579129219055,0.3715584874153137,-0.17104214429855347
1760898187245830400,11.565830322265626,0.10842850059270859,0.36911505460739136,-0.13561198115348816
1760898187255517700,11.575517578125,0.10231985151767731,0.3617846667766571,-0.09651663154363632
1760898187265205000,11.585205078125,0.10842850059270859,0.337350070476532,-0.056199558079242706
1760898187274892300,11.594892333984374,0.12675444781780243,0.30802857875823975,-0.018325943499803543
1760898187284579600,11.60457958984375,0.1536324918270111,0.2848156988620758,0.017104214057326317
1760898187294267000,11.614266845703124,0.18173226714134216,0.2811505198478699,0.03787361457943916
1760898187303954000,11.623953857421874,0.20372340083122253,0.2701549530029297,0.030543239787220955
1760898187313641200,11.63364111328125,0.22693626582622528,0.233503058552742,-0.003665188793092966
1760898187323328500,11.64332861328125,0.2525925934314728,0.16875138878822327,-0.056199558079242706
1760898187333015800,11.653015869140624,0.28435754776000977,0.07345648854970932,-0.11362084746360779
1760898187342703000,11.662703125,0.323452889919281,-0.04016435891389847,-0.1649334877729416
1760898187352390400,11.672390380859374,0.3686569035053253,-0.13301581144332886,-0.20280711352825165
1760898187362077400,11.682077392578124,0.40286532044410706,-0.17333288490772247,-0.20402882993221283
1760898187371764700,11.6917646484375,0.416304349899292,-0.17944152653217316,-0.1747073233127594
1760898187381452000,11.7014521484375,0.406530499458313,-0.2026543915271759,-0.13439024984836578
1760898187391139300,11.711139404296874,0.3943132162094116,-0.2551887631416321,-0.07819069176912308
1760898187400826600,11.72082666015625,0.37354379892349243,-0.34437501430511475,-0.023212861269712448
1760898187410514000,11.730513916015624,0.33689191937446594,-0.41157013177871704,0.014660755172371864
1760898187420201200,11.740201171875,0.3197877109050751,-0.4909825623035431,0.05253437161445618
1760898187429888500,11.749888427734374,0.3087921440601349,-0.44211336970329285,0.01954767294228077
1760898187439575600,11.759575439453124,0.28069236874580383,-0.31383177638053894,-0.04153880476951599
1760898187449262800,11.769262939453125,0.25992295145988464,-0.2441931962966919,-0.09040798991918564
1760898187458950100,11.7789501953125,0.25381430983543396,-0.2551887631416321,-0.1331685185432434
1760898187468637400,11.788637451171875,0.24526220560073853,-0.2893971800804138,-0.17104214429855347
1760898187478324700,11.79832470703125,0.21838416159152985,-0.2796233594417572,-0.1905898153781891
1760898187488012000,11.808011962890625,0.1853974610567093,-0.2441931962966919,-0.19914191961288452
1760898187497699300,11.81769921875,0.15729768574237823,-0.2124282270669937,-0.19425499439239502
1760898187507386400,11.827386474609375,0.12064579129219055,-0.18921536207199097,-0.1637117564678192
1760898187517073700,11.83707373046875,0.07299833744764328,-0.1879936307668686,-0.11972949653863907
1760898187526761000,11.846760986328125,0.022907428443431854,-0.21975859999656677,-0.08063415437936783
1760898187536448300,11.8564482421875,-0.019853105768561363,-0.2637408673763275,-0.043982263654470444
1760898187546135600,11.866135498046875,-0.051618073135614395,-0.2893971800804138,-0.012217295356094837
1760898187555822800,11.87582275390625,-0.06750056147575378,-0.29672756791114807,0.006108647678047419
1760898187565510100,11.88551025390625,-0.07483093440532684,-0.29794928431510925,0.007330377586185932
1760898187575197200,11.895197265625,-0.0772743970155716,-0.27717989683151245,-0.024434590712189674
1760898187584884500,11.904884521484375,-0.07483093440532684,-0.24174973368644714,-0.08796452730894089
1760898187594571800,11.91457177734375,-0.057726722210645676,-0.19043709337711334,-0.16615521907806396
1760898187604259000,11.924259033203125,-0.028405211865901947,-0.11591159552335739,-0.2419024556875229
1760898187613946400,11.9339462890625,0.01802051067352295,-0.014508038759231567,-0.3237583339214325
1760898187623633700,11.943633544921875,0.06322450190782547,0.07345648854970932,-0.4276053309440613
1760898187633321000,11.953321044921875,0.09865466505289078,0.10155627131462097,-0.5766563415527344
1760898187643008300,11.96300830078125,0.13775001466274261,0.09422589093446732,-0.7550288438796997
1760898187652695300,11.9726953125,0.16707152128219604,0.09300415962934494,-0.9285144805908203
1760898187662382600,11.982382568359375,0.2049451321363449,0.11255183815956116,-1.0690133571624756
1760898187672070000,11.99206982421875,0.2574795186519623,0.17608177661895752,-1.1557561159133911
1760898187681757200,12.001757080078125,0.2660316228866577,0.31291547417640686,-1.1691951751708984
1760898187691444500,12.011444580078125,0.2831358313560486,0.4558578431606293,-1.1447606086730957
1760898187701131800,12.0211318359375,0.30634868144989014,0.5768090486526489,-1.0800089836120605
1760898187710819000,12.030819091796875,0.3601047992706299,0.70753413438797,-0.9712749719619751
1760898187720506400,12.04050634765625,0.4456258714199066,0.7771727442741394,-0.823445737361908
1760898187730193400,12.050193359375,0.5421425104141235,0.808937668800354,-0.6768381595611572
1760898187739880700,12.059880615234375,0.6191114783287048,0.8688024282455444,-0.5375609993934631
1760898187749568000,12.069568115234375,0.6557633280754089,0.8663589954376221,-0.4153880476951599
1760898187759255300,12.07925537109375,0.6618719696998596,0.7368556261062622,-0.3335321843624115
1760898187768942600,12.088942626953125,0.6349939107894897,0.5340485572814941,-0.25900667905807495
1760898187778630000,12.0986298828125,0.6166679859161377,0.3630063831806183,-0.19425499439239502
1760898187788317200,12.108317138671875,0.6093376278877258,0.23105959594249725,-0.17837251722812653
1760898187798004200,12.118004150390625,0.5910117030143738,0.19440771639347076,-0.20769402384757996
1760898187807691500,12.12769140625,0.5714640021324158,0.24205516278743744,-0.25900667905807495
1760898187817378800,12.13737890625,0.5482511520385742,0.3410152494907379,-0.318871408700943
1760898187827066000,12.147066162109375,0.5458076596260071,0.43142324686050415,-0.3958403766155243
