time,seconds_elapsed,z,y,x
1760966897486005800,0.243005859375,-0.736244797706604,-0.10644318908452988,-0.5261073112487793
1760966897495693800,0.25269384765625,-0.8022181987762451,-0.12232567369937897,-0.37461283802986145
1760966897505382000,0.2623818359375,-0.8962913751602173,-0.23228132724761963,-0.18402300775051117
1760966897515070000,0.272070068359375,-0.9500474333763123,-0.43020153045654297,-0.03741546720266342
1760966897524758300,0.28175830078125,-0.8914044499397278,-0.5560396909713745,0.09086613357067108
1760966897534446300,0.2914462890625,-0.8694133162498474,-0.4338667094707489,0.32421648502349854
1760966897544134400,0.301134521484375,-0.8498656153678894,-0.17974695563316345,0.5074759125709534
1760966897553822500,0.310822509765625,-0.8254310488700867,0.01206457894295454,0.588110089302063
1760966897563510800,0.3205107421875,-0.7851139307022095,0.11346813291311264,0.568562388420105
1760966897573198800,0.33019873046875,-0.7093667387962341,0.20021092891693115,0.46227192878723145
1760966897582887000,0.339886962890625,-0.5566505193710327,0.3272708058357239,0.2680169343948364
1760966897592575000,0.349574951171875,-0.32330018281936646,0.5129737257957458,-0.01908952370285988
1760966897602263300,0.35926318359375,-0.11927134543657303,0.6791289448738098,-0.3159697949886322
1760966897611951400,0.368951416015625,0.009010255336761475,0.8196278214454651,-0.5871937870979309
1760966897621639400,0.378639404296875,0.05543597787618637,0.9014837145805359,-0.8388700485229492
1760966897631327500,0.388327392578125,0.02977965772151947,0.9161444306373596,-1.0538945198059082
1760966897641015800,0.398015869140625,-0.026419902220368385,0.9418007731437683,-1.2005020380020142
1760966897650704000,0.407703857421875,-0.07162389904260635,0.9295834898948669,-1.2738057374954224
1760966897660392000,0.417391845703125,-0.08384118974208832,0.7890845537185669,-1.2848013639450073
1760966897670080000,0.427080078125,-0.036193739622831345,0.4897608458995819,-1.2395973205566406
1760966897679768300,0.436768310546875,0.0847574844956398,0.041386090219020844,-1.1308634281158447
1760966897689456400,0.446456298828125,0.24236060678958893,-0.5303833484649658,-0.9622647166252136
1760966897699144400,0.45614453125,0.4085158109664917,-1.0691660642623901,-0.7399099469184875
1760966897708832500,0.46583251953125,0.5294670462608337,-1.3208423852920532,-0.4857902228832245
1760966897718520800,0.475520751953125,0.5270236134529114,-1.1192569732666016,-0.2390008419752121
1760966897728209000,0.485208984375,0.39141160249710083,-0.7417425513267517,-0.03741546720266342
1760966897737897000,0.49489697265625,0.1727220118045807,-0.37400195002555847,0.12018764764070511
1760966897747585000,0.5045849609375,-0.061850059777498245,0.02306014485657215,0.24602578580379486
1760966897757273300,0.5142734375,-0.25243985652923584,0.37003132700920105,0.3168860971927643
1760966897766961400,0.52396142578125,-0.36483898758888245,0.5129737257957458,0.29245150089263916
1760966897776649500,0.5336494140625,-0.366060733795166,0.5642863512039185,0.17516547441482544
1760966897786337800,0.543337890625,-0.2597702443599701,0.680350661277771,0.004123337101191282
1760966897796025900,0.55302587890625,-0.0948367565870285,0.6656898856163025,-0.07406735420227051
1760966897805714000,0.5627138671875,0.024892739951610565,0.5129737257957458,0.002901607658714056
1760966897815402000,0.572402099609375,0.07009673118591309,0.2026543915271759,0.187382772564888
1760966897825090300,0.58209033203125,0.10308343172073364,-0.3263545036315918,0.3938550651073456
1760966897834778400,0.5917783203125,0.14950916171073914,-0.7038689255714417,0.669965922832489
1760966897844466400,0.601466552734375,0.22036947309970856,-0.929888904094696,0.9631810188293457
1760966897854154500,0.611154541015625,0.19960007071495056,-1.0019710063934326,1.159879446029663
1760966897863842800,0.6208427734375,0.0383317656815052,-0.9567669630050659,1.142775297164917
1760966897873531000,0.63053076171875,-0.21700970828533173,-0.8956804871559143,0.8886555433273315
1760966897883219000,0.640218994140625,-0.4552469849586487,-0.6207913160324097,0.5380191802978516
1760966897892907000,0.649906982421875,-0.585972011089325,0.01695149764418602,0.2594648003578186
1760966897902595300,0.65959521484375,-0.5371028780937195,0.5031998753547668,0.11774418503046036
1760966897912283400,0.669283447265625,-0.3513999581336975,0.6314814686775208,0.044440411031246185
1760966897921971500,0.678971435546875,-0.17424917221069336,0.7389936447143555,-0.03130681812763214
1760966897931659800,0.68865966796875,-0.05940660089254379,0.8110756874084473,-0.1156061589717865
1760966897941347800,0.698347900390625,0.001679878099821508,0.7292198538780212,-0.19501857459545135
1760966897951036000,0.708035888671875,0.10186170041561127,0.6485856771469116,-0.2842048406600952
1760966897960724000,0.717723876953125,0.41218101978302,0.5606211423873901,-0.346513032913208
1760966897970412300,0.727412353515625,1.0096067190170288,0.3468184769153595,-0.3269653618335724
1760966897980100400,0.737100341796875,1.7792963981628418,0.15867212414741516,-0.2390008419752121
1760966897989788400,0.746788330078125,2.514777660369873,0.13179408013820648,-0.06673697382211685
1760966897999476500,0.7564765625,2.7261366844177246,0.1366809904575348,0.28267768025398254
1760966898009164800,0.766164794921875,1.5850414037704468,0.2087630331516266,0.5123628377914429
1760966898018852900,0.775852783203125,0.45249807834625244,0.29184064269065857,0.4659371078014374
1760966898028541000,0.785541015625,0.49892380833625793,0.12324196845293045,0.5331322550773621
1760966898038229200,0.795229248046875,0.6785180568695068,-0.12476912885904312,0.6430879235267639
1760966898047917300,0.804917236328125,0.5978838801383972,0.04016435891389847,0.7493783831596375
1760966898057605400,0.81460546875,0.5196931958198547,0.5997164845466614,0.8190169334411621
1760966898067293400,0.82429345703125,0.5929969549179077,1.1849249601364136,0.8776599764823914
1760966898076981800,0.833981689453125,0.7408262491226196,1.2680025100708008,1.0438151359558105
1760966898086669800,0.843669921875,0.8348994255065918,1.041982650756836,1.2466223239898682
1760966898096358000,0.85335791015625,0.7237220406532288,0.6412553191184998,1.3993384838104248
1760966898106046000,0.8630458984375,0.41584619879722595,0.3480401933193207,1.4249948263168335
1760966898115734300,0.872734375,0.12018764764070511,0.0743727833032608,1.2344050407409668
1760966898125422300,0.88242236328125,-0.005650499369949102,-0.03802633285522461,0.8300125002861023
1760966898135110400,0.8921103515625,0.044440411031246185,0.03894263133406639,0.3559814393520355
1760966898144798500,0.901798583984375,0.17638720571994781,0.20998476445674896,-0.07040216773748398
1760966898154486800,0.91148681640625,0.2851211428642273,0.3223838806152344,-0.32818710803985596
1760966898164174800,0.9211748046875,0.29367324709892273,0.14889828860759735,-0.3196350038051605
1760966898173863000,0.93086279296875,0.27290382981300354,-0.04780016839504242,-0.21578797698020935
1760966898183551200,0.94055126953125,0.3315468728542328,-0.10644318908452988,-0.07040216773748398
1760966898193239300,0.9502392578125,0.41095927357673645,-0.30802857875823975,0.20082180202007294
1760966898202927400,0.95992724609375,0.42073312401771545,-0.624456524848938,0.5404626131057739
1760966898212615400,0.969615478515625,0.42073312401771545,-0.7490729093551636,0.7603739500045776
1760966898222303500,0.979303466796875,0.5367974042892456,-0.6305651664733887,0.8116865754127502
1760966898231991800,0.98899169921875,0.734717607498169,-0.49250972270965576,0.7225003242492676
1760966898241680000,0.998679931640625,0.9094249606132507,-0.41554075479507446,0.4915934205055237
1760966898251368000,1.008367919921875,0.9851721525192261,-0.3068068325519562,0.187382772564888
1760966898261056300,1.01805615234375,0.8947641849517822,-0.1931859850883484,-0.0642935186624527
1760966898270744300,1.027744384765625,0.6882919073104858,-0.06123919412493706,-0.2023489624261856
1760966898280432400,1.037432373046875,0.44150251150131226,0.03527744114398956,-0.2438877671957016
1760966898290120400,1.047120361328125,0.20204351842403412,-0.02458730712532997,-0.19013166427612305
1760966898299808800,1.056808837890625,0.06520981341600418,-0.14431680738925934,0.002901607658714056
1760966898309496800,1.066496826171875,0.046883873641490936,-0.233503058552742,0.2948949635028839
1760966898319185000,1.076184814453125,0.07131846249103546,-0.41065385937690735,0.6198750138282776
1760966898328873200,1.085873291015625,0.1360701322555542,-0.8101593852043152,0.8996511101722717
1760966898338561300,1.095561279296875,0.22036947309970856,-1.1107048988342285,1.0389282703399658
1760966898348249300,1.105249267578125,0.2655734717845917,-1.0728312730789185,0.9912807941436768
1760966898357937400,1.1149375,0.21059563755989075,-0.8675807118415833,0.8471167087554932
1760966898367625500,1.12462548828125,0.08842267841100693,-0.5560396909713745,0.6907353401184082
1760966898377313800,1.134313720703125,-0.05696314200758934,-0.3825540542602539,0.4634936451911926
1760966898387001900,1.144001953125,-0.20357069373130798,-0.5340485572814941,0.11896591633558273
1760966898396690000,1.15368994140625,-0.3061959743499756,-0.9555452466011047,-0.27198755741119385
1760966898406378200,1.163378173828125,-0.3623955249786377,-1.4479022026062012,-0.6311760544776917
1760966898416066300,1.17306640625,-0.35384342074394226,-1.8278601169586182,-0.9219476580619812
1760966898425754400,1.18275439453125,-0.3061959743499756,-2.0355541706085205,-1.123533010482788
1760966898435442400,1.1924423828125,-0.2487746775150299,-2.086866855621338,-1.1858412027359009
1760966898445130800,1.202130859375,-0.22434009611606598,-1.8669555187225342,-1.0514509677886963
1760966898454818800,1.21181884765625,-0.2707658112049103,-1.3086251020431519,-0.7276926636695862
1760966898464507000,1.2215068359375,-0.3367392122745514,-0.6794343590736389,-0.25732678174972534
1760966898474195200,1.2311953125,-0.3721693754196167,-0.3251327872276306,0.23136503994464874
1760966898483883300,1.24088330078125,-0.4039343297481537,-0.3104720115661621,0.5551233887672424
1760966898493571300,1.2505712890625,-0.4967857897281647,-0.4289797842502594,0.5710058808326721
1760966898503259400,1.26025927734375,-0.6556106209754944,-0.3874409794807434,0.2655734717845917
1760966898512947500,1.269947509765625,-0.8229875564575195,-0.1931859850883484,-0.27809619903564453
1760966898522635800,1.2796357421875,-0.9353867173194885,0.08536835014820099,-0.9256128668785095
1760966898532323800,1.28932373046875,-0.9439387917518616,0.36025750637054443,-1.5181516408920288
1760966898542012000,1.299011962890625,-0.819322407245636,0.5642863512039185,-1.8944443464279175
1760966898561388300,1.31838818359375,-0.3868301212787628,0.4799869954586029,-1.7282891273498535
1760966898571076400,1.328076416015625,-0.29275694489479065,0.27107125520706177,-1.30923593044281
1760966898580764400,1.337764404296875,-0.3819431960582733,0.0206166859716177,-0.819322407245636
1760966898590452700,1.34745263671875,-0.5554288029670715,-0.21151192486286163,-0.388051837682724
1760966898600140800,1.357140869140625,-0.6849321126937866,-0.25060728192329407,-0.11682789027690887
1760966898609828900,1.366828857421875,-0.6898190379142761,-0.1455385386943817,0.007788525894284248
1760966898619517000,1.376516845703125,-0.6519454121589661,-0.02825249545276165,-0.026419902220368385
1760966898629205200,1.386205322265625,-0.6800451874732971,0.17455461621284485,-0.17058399319648743
1760966898638893300,1.395893310546875,-0.7338013052940369,0.38957902789115906,-0.3257436454296112
1760966898648581400,1.405581298828125,-0.7521272301673889,0.523969292640686,-0.40637779235839844
1760966898658269700,1.415269775390625,-0.6861538887023926,0.523969292640686,-0.33429574966430664
1760966898667957800,1.424957763671875,-0.5969675779342651,0.35903576016426086,-0.05451968312263489
1760966898677645800,1.434645751953125,-0.5199986696243286,0.12324196845293045,0.3779725730419159
1760966898687334000,1.444333984375,-0.38072147965431213,-0.12232567369937897,0.8373429179191589
1760966898697022200,1.454022216796875,-0.162031888961792,-0.29336780309677124,1.1867575645446777
1760966898706710300,1.463710205078125,0.07620538026094437,-0.36911505460739136,1.3248130083084106
1760966898716398300,1.4733984375,0.21914774179458618,-0.2542724609375,1.2148573398590088
1760966898726086700,1.483086669921875,0.25702136754989624,0.09269873052835464,0.986393928527832
1760966898735774700,1.492774658203125,0.26190826296806335,0.6534726023674011,0.7664825916290283
1760966898745462800,1.502462890625,0.23747368156909943,1.1018472909927368,0.586888313293457
1760966898755150800,1.51215087890625,0.07498364895582199,1.1458295583724976,0.4036289155483246
1760966898764839200,1.521839111328125,-0.2231183648109436,0.7255546450614929,0.1262962967157364
1760966898774527200,1.53152734375,-0.42592546343803406,-0.05757400393486023,-0.40026915073394775
1760966898784215300,1.54121533203125,-0.45769044756889343,-0.5633700489997864,-1.1174243688583374
1760966898793903400,1.5509033203125,-0.4283689260482788,-0.523052990436554,-1.7551672458648682
1760966898803591700,1.560591796875,-0.3379609286785126,0.047494735568761826,-2.04838228225708
1760966898813279700,1.57027978515625,-0.20112723112106323,0.9259182810783386,-1.8687881231307983
1760966898822967800,1.5799677734375,-0.09117157012224197,1.6797254085540771,-1.282357931137085
1760966898832656100,1.58965625,0.002901607658714056,1.9607232809066772,-0.490677148103714
1760966898842344200,1.59934423828125,0.10919208079576492,1.680947184562683,0.30711227655410767
1760966898852032300,1.6090322265625,0.27779075503349304,1.0627520084381104,0.9534072279930115
1760966898861720300,1.61872021484375,0.495258629322052,0.46166107058525085,1.3223695755004883
1760966898871408400,1.628408447265625,0.6858484148979187,0.15867212414741516,1.3675734996795654
1760966898881096700,1.6380966796875,0.8568905591964722,0.1672242283821106,1.1977530717849731
1760966898890784800,1.64778466796875,1.0230457782745361,0.3407098352909088,0.9375247359275818
1760966898900472800,1.657472900390625,1.1537708044052124,0.5618428587913513,0.7066178321838379
1760966898910161200,1.6671611328125,1.1965314149856567,0.6974548697471619,0.5453495383262634
1760966898919849200,1.67684912109375,1.1391100883483887,0.7744238376617432,0.4243983030319214
1760966898929537300,1.686537353515625,0.9998329281806946,0.7854194045066833,0.34498587250709534
1760966898939225300,1.696225341796875,0.7848085165023804,0.5728384256362915,0.3205513060092926
1760966898948913700,1.70591357421875,0.5221366882324219,0.24297146499156952,0.2790125012397766
1760966898958601700,1.715601806640625,0.3058905303478241,0.002290742937475443,0.15806126594543457
1760966898968289800,1.725289794921875,0.1776089370250702,-0.11377356201410294,-0.06062832847237587
1760966898977978000,1.73497802734375,0.11896591633558273,-0.11499529331922531,-0.26221370697021484
1760966898987666200,1.744666259765625,0.10919208079576492,-0.17852523922920227,-0.3452913165092468
1760966898997354200,1.754354248046875,0.10797034949064255,-0.2897026240825653,-0.29153522849082947
1760966899007042300,1.764042236328125,0.09941824525594711,-0.3520108163356781,-0.13759729266166687
1760966899016730600,1.773730712890625,0.10186170041561127,-0.29703301191329956,0.06154462695121765
1760966899026418700,1.783418701171875,0.09819651395082474,-0.22128576040267944,0.23014330863952637
1760966899036106800,1.793106689453125,0.04932733252644539,-0.2188423126935959,0.30344706773757935
1760966899045794800,1.802794921875,-0.0435241162776947,-0.2176205813884735,0.26190826296806335
1760966899055483100,1.812483154296875,-0.15470150113105774,-0.25671592354774475,0.15561780333518982
1760966899065171200,1.822171142578125,-0.23655737936496735,-0.4033234715461731,0.06887500733137131
1760966899074859300,1.831859375,-0.2548833191394806,-0.6782126426696777,0.03588830679655075
1760966899084547300,1.84154736328125,-0.2341139316558838,-1.0459532737731934,0.07131846249103546
1760966899094235600,1.851235595703125,-0.19379685819149017,-1.3342814445495605,0.21059563755989075
1760966899103923700,1.860923828125,-0.18524473905563354,-1.4149155616760254,0.41095927357673645
1760966899113611800,1.87061181640625,-0.29275694489479065,-1.411250352859497,0.4280634820461273
1760966899123300000,1.880300048828125,-0.5285507440567017,-1.4613412618637085,0.013897174037992954
1760966899132988200,1.88998828125,-0.7716749310493469,-1.3721550703048706,-0.7521272301673889
1760966899142676200,1.89967626953125,-0.8620828986167908,-1.0496183633804321,-1.5254820585250854
1760966899152364300,1.9093642578125,-0.8547525405883789,-0.7417425513267517,-1.9946261644363403
1760966899162052400,1.91905224609375,-0.8523091077804565,-0.716086208820343,-2.0948081016540527
1760966899171740700,1.92874072265625,-0.8559742569923401,-0.9543235301971436,-1.9091051816940308
1760966899181428700,1.9384287109375,-0.8681915402412415,-1.2646428346633911,-1.5804599523544312
1760966899191116800,1.94811669921875,-0.8009964227676392,-1.3978112936019897,-1.1650718450546265
1760966899200805000,1.95780517578125,-0.5933024287223816,-1.3758201599121094,-0.7020363211631775
1760966899210493200,1.9674931640625,-0.38072147965431213,-1.1925607919692993,-0.3269653618335724
1760966899220181200,1.97718115234375,-0.28787001967430115,-0.8981239199638367,-0.1974620372056961
1760966899229869300,1.986869384765625,-0.2683223485946655,-0.5951350331306458,-0.32818710803985596
1760966899239557600,1.9965576171875,-0.24999640882015228,-0.27259841561317444,-0.5908589363098145
1760966899249245700,2.00624560546875,-0.23533566296100616,0.0206166859716177,-0.8645263910293579
1760966899258933800,2.015933837890625,-0.29153522849082947,0.18555018305778503,-1.0709986686706543
1760966899268621800,2.025621826171875,-0.41615164279937744,0.18921536207199097,-1.1919498443603516
1760966899278310100,2.03531005859375,-0.5920807123184204,0.11591159552335739,-1.2457059621810913
1760966899287998200,2.044998291015625,-0.7777835726737976,0.06215549260377884,-1.2395973205566406
1760966899297686300,2.054686279296875,-0.9268345832824707,0.03405570983886719,-1.182176113128662
1760966899307374300,2.064374267578125,-1.0123556852340698,0.07315105944871902,-1.0795507431030273
1760966899317062700,2.074062744140625,-1.0465641021728516,0.1879936307668686,-0.9647082090377808
1760966899326750700,2.083750732421875,-1.0270164012908936,0.24297146499156952,-0.8914044499397278
1760966899336438800,2.093438720703125,-0.9671516418457031,0.3370446562767029,-0.7802270650863647
1760966899346126800,2.103126953125,-0.8535308241844177,0.4592176079750061,-0.6018545031547546
1760966899355815200,2.112815185546875,-0.706923246383667,0.5325213670730591,-0.44180795550346375
1760966899365503200,2.122503173828125,-0.5493201613426208,0.58749920129776,-0.32452189922332764
1760966899375191300,2.13219140625,-0.4039343297481537,0.6033816933631897,-0.22189663350582123
1760966899384879400,2.14187939453125,-0.2390008419752121,0.5569559335708618,-0.04841103404760361
1760966899394567700,2.151567626953125,-0.055741410702466965,0.46654796600341797,0.249690979719162
1760966899404255700,2.161255859375,0.125074565410614,0.3822486400604248,0.6430879235267639
1760966899413943800,2.17094384765625,0.2338084876537323,0.310166597366333,1.0535889863967896
1760966899423632000,2.1806318359375,0.29245150089263916,0.29672756791114807,1.3529127836227417
1760966899433320200,2.1903203125,0.37919431924819946,0.4017963111400604,1.4701987504959106
1760966899443008300,2.20000830078125,0.4842630624771118,0.6009382009506226,1.4469859600067139
1760966899452696300,2.2096962890625,0.5807796716690063,0.7560978531837463,1.3235912322998047
1760966899462384400,2.21938427734375,0.5722275972366333,0.6180424690246582,1.0731366872787476
1760966899472072700,2.22907275390625,0.41462448239326477,0.1769980639219284,0.6357575058937073
1760966899481760800,2.2387607421875,0.23014330863952637,-0.295811265707016,0.006566796451807022
1760966899491448800,2.24844873046875,0.12873975932598114,-0.2286161482334137,-0.5456549525260925
1760966899501137000,2.258136962890625,0.0896444097161293,0.35537058115005493,-0.754570722579956
1760966899510825200,2.2678251953125,0.09453132748603821,1.0370956659317017,-0.5627591609954834
1760966899520513300,2.27751318359375,0.14706569910049438,1.5819870233535767,-0.08139773458242416
1760966899530201300,2.287201416015625,0.24602578580379486,1.7737985849380493,0.4549415409564972
1760966899539889400,2.296889404296875,0.3926333487033844,1.5270092487335205,0.8263473510742188
1760966899549577700,2.30657763671875,0.5539016127586365,0.8452841639518738,1.0291544198989868
1760966899559265800,2.316265869140625,0.661413848400116,-0.0025961752980947495,1.123227596282959
1760966899568953900,2.325953857421875,0.6491965651512146,-0.5303833484649658,1.1574360132217407
1760966899578642000,2.335641845703125,0.5771145224571228,-0.5975784659385681,1.159879446029663
1760966899588330200,2.345330322265625,0.5074759125709534,-0.3617846667766571,1.1024582386016846
1760966899598018300,2.355018310546875,0.453719824552536,0.007177661173045635,0.9045380353927612
1760966899607706400,2.364706298828125,0.45127636194229126,0.3724747896194458,0.5392408967018127
1760966899617394400,2.37439453125,0.5074759125709534,0.670576810836792,0.09575305134057999
1760966899627082800,2.384082763671875,0.5575668215751648,0.8025236129760742,-0.2964221239089966
1760966899636770800,2.393770751953125,0.5758927464485168,0.7170025110244751,-0.5468766689300537
1760966899646459000,2.403458984375,0.5758927464485168,0.4738783538341522,-0.6091849207878113
1760966899656147000,2.41314697265625,0.5123628377914429,0.06582067906856537,-0.5065596103668213
1760966899665835300,2.422835205078125,0.3828594982624054,-0.44608399271965027,-0.3306305706501007
1760966899675523300,2.4325234375,0.2484692484140396,-0.8663589954376221,-0.19501857459545135
1760966899685211400,2.44221142578125,0.15561780333518982,-1.1094831228256226,-0.05940660089254379
1760966899694899500,2.4518994140625,0.08353576064109802,-1.1388046741485596,0.1715002804994583
1760966899704587800,2.461587890625,-0.023976443335413933,-0.9958623051643372,0.46838057041168213
1760966899714275800,2.47127587890625,-0.14859285950660706,-0.7392991185188293,0.7005091905593872
1760966899723964000,2.4809638671875,-0.2328922003507614,-0.448527455329895,0.744491457939148
1760966899733652000,2.49065185546875,-0.20967933535575867,-0.21639885008335114,0.5832231640815735
1760966899743340300,2.50034033203125,-0.07284562289714813,-0.08811724185943604,0.2900080680847168
1760966899753028400,2.5100283203125,0.07131846249103546,-0.14431680738925934,0.016340631991624832
1760966899762716400,2.51971630859375,0.13729186356067657,-0.31413722038269043,-0.08017600327730179
1760966899772404500,2.529404541015625,0.11285726726055145,-0.6440041661262512,0.03222311660647392
1760966899782092800,2.5390927734375,-0.009315688163042068,-0.9506583213806152,0.29733842611312866
1760966899791780900,2.54878076171875,-0.17058399319648743,-0.9628756046295166,0.6565269231796265
1760966899801469000,2.558468994140625,-0.3367392122745514,-0.7637336850166321,1.0682498216629028
1760966899811157000,2.568156982421875,-0.5480984449386597,-0.6696605086326599,1.3150391578674316
1760966899820845300,2.57784521484375,-0.744796872138977,-0.7234166264533997,1.1391100883483887
1760966899830533400,2.587533447265625,-0.819322407245636,-0.7893900275230408,0.4402807950973511
1760966899840221400,2.597221435546875,-0.7472403645515442,-0.6684387922286987,-0.5908589363098145
1760966899849909500,2.606909423828125,-0.5896372199058533,-0.3617846667766571,-1.5609122514724731
1760966899859597800,2.616597900390625,-0.4686860144138336,-0.14798198640346527,-2.0447170734405518
1760966899869286000,2.626285888671875,-0.471129447221756,-0.1870773434638977,-1.9469788074493408
1760966899878974000,2.635973876953125,-0.5102248191833496,-0.3202458620071411,-1.3837614059448242
1760966899888662000,2.645662109375,-0.48701193928718567,-0.3764454126358032,-0.4760163724422455
1760966899898350300,2.655350341796875,-0.38560840487480164,-0.4705185890197754,0.578336238861084
1760966899908038400,2.665038330078125,-0.3000873327255249,-0.7197514176368713,1.4689770936965942
1760966899917726500,2.6747265625,-0.29153522849082947,-1.003192663192749,1.9943207502365112
1760966899927414500,2.68441455078125,-0.3623955249786377,-1.0545053482055664,2.045633316040039
1760966899937102800,2.694102783203125,-0.4699077308177948,-0.7832813858985901,1.6620103120803833
1760966899946791000,2.703791015625,-0.6165152788162231,-0.36911505460739136,1.0633628368377686
1760966899956479000,2.71347900390625,-0.7667880058288574,0.0902552679181099,0.47204574942588806
1760966899966167000,2.7231669921875,-0.8804088830947876,0.5251910090446472,0.007788525894284248
1760966899975855000,2.732855224609375,-0.9500474333763123,0.7793107628822327,-0.24266603589057922
1760966899985543400,2.74254345703125,-1.0038034915924072,0.7267763614654541,-0.28664830327033997
1760966899995231500,2.7522314453125,-1.0184643268585205,0.4592176079750061,-0.24510949850082397
1760966900004919600,2.76191943359375,-0.9561560750007629,0.13790272176265717,-0.20479241013526917
1760966900014608000,2.77160791015625,-0.8107702732086182,-0.10888664424419403,-0.12782345712184906
1760966900024296000,2.7812958984375,-0.6323977708816528,-0.20051635801792145,0.001679878099821508
1760966900033984000,2.79098388671875,-0.46624255180358887,-0.15531237423419952,0.11407899856567383
1760966900043672000,2.800672119140625,-0.3416261374950409,0.030390523374080658,0.17516547441482544
1760966900053360400,2.8103603515625,-0.2536616027355194,0.2503018379211426,0.2032652497291565
1760966900063048400,2.82004833984375,-0.17424917221069336,0.3981311321258545,0.2032652497291565
1760966900072736500,2.829736572265625,-0.08261945843696594,0.4995346665382385,0.187382772564888
1760966900082424600,2.839424560546875,0.027336198836565018,0.5630646347999573,0.14950916171073914
1760966900092113000,2.84911279296875,0.1776089370250702,0.6180424690246582,0.10186170041561127
1760966900101801000,2.858801025390625,0.36453354358673096,0.6742420196533203,0.0639880821108818
1760966900111489000,2.868489013671875,0.5636754631996155,0.7279980778694153,0.11163553595542908
1760966900121177000,2.878177001953125,0.7163916826248169,0.7609847784042358,0.27656903862953186
1760966900130865400,2.887865478515625,0.7432697415351868,0.7878628373146057,0.47326749563217163
1760966900140553500,2.897553466796875,0.679739773273468,0.6717985272407532,0.5929969549179077
1760966900150241500,2.907241455078125,0.588110089302063,0.19043709337711334,0.4915934205055237
1760966900159929600,2.9169296875,0.47693267464637756,-0.5108356475830078,0.002901607658714056
1760966900169618000,2.926617919921875,0.36942046880722046,-0.5658134818077087,-0.8058833479881287
1760966900179306000,2.936305908203125,0.3095557391643524,0.3761399984359741,-1.5609122514724731
1760966900188994000,2.945994140625,0.2851211428642273,1.5783218145370483,-1.9347615242004395
1760966900198682000,2.95568212890625,0.3303251266479492,2.3431246280670166,-1.7869322299957275
1760966900208370400,2.965370361328125,0.4341721534729004,2.409097909927368,-1.2701406478881836
1760966900218058500,2.97505859375,0.5758927464485168,1.8226678371429443,-0.6702713966369629
1760966900227746600,2.98474658203125,0.7298306822776794,0.7951932549476624,-0.14737112820148468
1760966900237435000,2.994434814453125,0.8434515595436096,-0.2530507445335388,0.2790125012397766
1760966900247123000,3.004123046875,0.9155336022377014,-0.8712459206581116,0.6247619390487671
1760966900256811000,3.01381103515625,0.9509637355804443,-0.9005674123764038,0.8947641849517822
1760966900266499000,3.0234990234375,0.938746452331543,-0.458301305770874,0.9509637355804443
1760966900276187100,3.033187255859375,0.9045380353927612,0.1415679156780243,0.7554870247840881
1760966900285875500,3.04287548828125,0.8959859013557434,0.6131555438041687,0.41218101978302
1760966900295563500,3.0525634765625,0.9179770350456238,0.9014837145805359,0.054214250296354294
1760966900305251600,3.06225146484375,0.928972601890564,1.098182201385498,-0.21700970828533173
1760966900314939600,3.071939697265625,0.8788816928863525,1.1812597513198853,-0.356286883354187
1760966900324628000,3.0816279296875,0.7689260244369507,1.0554215908050537,-0.3575085997581482
1760966900334316000,3.09131591796875,0.6540834903717041,0.7646499872207642,-0.27198755741119385
1760966900344004000,3.101004150390625,0.5807796716690063,0.3627009689807892,-0.15836669504642487
1760966900353692400,3.1106923828125,0.5416843295097351,-0.04780016839504242,-0.06673697382211685
1760966900363380500,3.12038037109375,0.4757109582424164,-0.29214608669281006,-0.020311253145337105
1760966900373068500,3.130068603515625,0.4085158109664917,-0.27137666940689087,0.09575305134057999
1760966900382756600,3.139756591796875,0.3364337682723999,-0.17608177661895752,0.32421648502349854
1760966900392445000,3.14944482421875,0.25702136754989624,-0.13454297184944153,0.6101012229919434
1760966900402133000,3.159133056640625,0.17883066833019257,-0.15775582194328308,0.8544471263885498
1760966900411821000,3.168821044921875,0.06643154472112656,-0.23228132724761963,0.9472985863685608
1760966900421509000,3.178509033203125,-0.07528908550739288,-0.337350070476532,0.7933606505393982
1760966900431197400,3.188197509765625,-0.15225805342197418,-0.4851793646812439,0.3718639314174652
1760966900440885500,3.197885498046875,-0.1363755613565445,-0.7197514176368713,-0.16569706797599792
1760966900450573600,3.207573486328125,-0.08139773458242416,-0.9286671876907349,-0.5578722357749939
1760966900460262000,3.217261962890625,-0.004428769461810589,-1.0337358713150024,-0.716697096824646
1760966900469950000,3.226949951171875,0.11285726726055145,-0.9457713961601257,-0.5737547278404236
1760966900479638000,3.236637939453125,0.2435823380947113,-0.74540776014328,-0.08384118974208832
1760966900489326000,3.246326171875,0.25579962134361267,-0.6452259421348572,0.6076577305793762
1760966900499014400,3.256014404296875,-0.0386371985077858,-0.8981239199638367,1.1635446548461914
1760966900508702500,3.265702392578125,-0.6446150541305542,-1.5126539468765259,1.2099703550338745
1760966900518390500,3.275390625,-1.1381938457489014,-2.0526583194732666,0.5294670462608337
1760966900528078600,3.28507861328125,-1.1601849794387817,-2.0208933353424072,-0.7557924389839172
1760966900537767000,3.294766845703125,-0.8987348079681396,-1.5285364389419556,-2.1815507411956787
1760966900547455000,3.304455078125,-0.6580541133880615,-0.9384410381317139,-3.110065221786499
1760966900557143000,3.31414306640625,-0.5786416530609131,-0.5145008563995361,-3.1467173099517822
1760966900566831400,3.323831298828125,-0.6397281289100647,-0.3678933084011078,-2.252411127090454
1760966900576519400,3.33351953125,-0.6311760544776917,-0.6220130324363708,-0.7105884552001953
1760966900586207500,3.34320751953125,-0.5090031027793884,-1.0581705570220947,0.8886555433273315
1760966900595895600,3.3528955078125,-0.4430296719074249,-1.3574942350387573,1.9698861837387085
1760966900605584000,3.362583984375,-0.48334676027297974,-1.4955496788024902,2.3486223220825195
1760966900615272000,3.37227197265625,-0.5334376692771912,-1.4479022026062012,2.037081241607666
1760966900624960000,3.3819599609375,-0.5114465355873108,-1.1143701076507568,1.2295180559158325
1760966900634648300,3.3916484375,-0.44791659712791443,-0.5670352578163147,0.25702136754989624
1760966900644336400,3.40133642578125,-0.4247037470340729,-0.04413498193025589,-0.5761982202529907
1760966900654024400,3.4110244140625,-0.502894401550293,0.30894485116004944,-1.0661118030548096
1760966900663712500,3.42071240234375,-0.6104066371917725,0.4298960864543915,-1.1870629787445068
1760966900673400800,3.43040087890625,-0.6629409790039062,0.38957902789115906,-1.0453423261642456
1760966900683089000,3.4400888671875,-0.6800451874732971,0.3016144931316376,-0.8205441236495972
1760966900692777000,3.44977685546875,-0.6873756051063538,0.16478078067302704,-0.6091849207878113
1760966900702465300,3.45946533203125,-0.7338013052940369,0.05482511222362518,-0.43081238865852356
1760966900712153300,3.4691533203125,-0.7716749310493469,0.11224640160799026,-0.2903134822845459
1760966900721841400,3.47884130859375,-0.7423534393310547,0.268627792596817,-0.2133445292711258
1760966900731529700,3.48852978515625,-0.6543889045715332,0.38957902789115906,-0.19868376851081848
1760966900741217800,3.4982177734375,-0.5102248191833496,0.44700029492378235,-0.18035782873630524
1760966900750905900,3.50790576171875,-0.30741769075393677,0.4604393243789673,-0.11316270381212234
1760966900760594000,3.517593994140625,-0.07406735420227051,0.4482220411300659,0.031001387163996696
1760966900770282200,3.5272822265625,0.12996147572994232,0.42134398221969604,0.2961167097091675
1760966900779970300,3.53697021484375,0.25702136754989624,0.3724747896194458,0.6601921319961548
1760966900789658400,3.546658447265625,0.30711227655410767,0.36514443159103394,1.0193805694580078
1760966900799346400,3.556346435546875,0.3413206934928894,0.4482220411300659,1.269835114479065
1760966900809034800,3.56603466796875,0.3926333487033844,0.559399425983429,1.337030291557312
1760966900818722800,3.575722900390625,0.42073312401771545,0.6327031850814819,1.251509189605713
1760966900828411000,3.585410888671875,0.43050694465637207,0.7695369124412537,1.104901671409607
1760966900838099200,3.59509912109375,0.43050694465637207,0.957683265209198,0.9692896604537964
1760966900847787300,3.604787353515625,0.3730856776237488,0.9747874736785889,0.8214604258537292
1760966900857475300,3.614475341796875,0.24480405449867249,0.7622065544128418,0.47326749563217163
1760966900867163600,3.62416357421875,0.1262962967157364,0.8049670457839966,-0.04841103404760361
1760966900876851700,3.633851806640625,0.09575305134057999,1.4976876974105835,-0.46257734298706055
1760966900886539800,3.643539794921875,0.16050471365451813,2.238055944442749,-0.5212203860282898
1760966900896228000,3.65322802734375,0.23014330863952637,2.4604105949401855,-0.14370593428611755
1760966900905916200,3.662916259765625,0.27779075503349304,2.0804526805877686,0.3718639314174652
1760966900915604200,3.672604248046875,0.36942046880722046,1.4414881467819214,0.6968439817428589
1760966900925292500,3.68229248046875,0.5771145224571228,0.8025236129760742,0.7493783831596375
1760966900934980600,3.691980712890625,0.8397863507270813,0.32971426844596863,0.6846266984939575
1760966900944668700,3.701668701171875,1.0462586879730225,-0.009926552884280682,0.6968439817428589
1760966900954356700,3.711356689453125,1.1464405059814453,-0.2603811025619507,0.8300125002861023
1760966900964045000,3.721045166015625,1.169653296470642,-0.28237223625183105,0.9301943182945251
1760966900973733000,3.730733154296875,1.1830923557281494,-0.049021899700164795,0.8312342762947083
1760966900983421200,3.740421142578125,1.2282963991165161,0.2906189262866974,0.5233584046363831
1760966900993109500,3.750109619140625,1.2588396072387695,0.5422952175140381,0.10186170041561127
1760966901002797600,3.759797607421875,1.2282963991165161,0.6327031850814819,-0.2964221239089966
1760966901012485600,3.769485595703125,1.1085668802261353,0.5337430834770203,-0.5798633694648743
1760966901022174000,3.779174072265625,0.8764382600784302,0.3052796721458435,-0.7338013052940369
1760966901031862000,3.788862060546875,0.6052142977714539,0.09147699922323227,-0.8022181987762451
1760966901041550000,3.798550048828125,0.4134027361869812,-0.0062613640911877155,-0.8425352573394775
1760966901051238400,3.80823828125,0.33399030566215515,0.009621120058000088,-0.847422182559967
1760966901060926500,3.817926513671875,0.3119991719722748,0.037720900028944016,-0.7643445730209351
1760966901070614500,3.827614501953125,0.2753472924232483,-0.11133010685443878,-0.5749764442443848
1760966901080302800,3.837302734375,0.22159120440483093,-0.4338667094707489,-0.3000873327255249
1760966901089991000,3.846990966796875,0.18982623517513275,-0.7845031023025513,-0.028863361105322838
1760966901099679000,3.856678955078125,0.21059563755989075,-1.0435097217559814,0.11285726726055145
1760966901109367300,3.8663671875,0.2240346521139145,-1.159574031829834,0.040775224566459656
1760966901119055400,3.876055419921875,0.187382772564888,-1.1302525997161865,-0.20357069373130798
1760966901128743400,3.885743408203125,0.09208786487579346,-1.0630574226379395,-0.502894401550293
1760966901138431700,3.895431640625,-0.0850629210472107,-0.9738711714744568,-0.7667880058288574
1760966901148119800,3.905119873046875,-0.25243985652923584,-0.8150463104248047,-0.9390518665313721
1760966901157807900,3.914807861328125,-0.3575085997581482,-0.551152765750885,-0.9500474333763123
1760966901167496200,3.92449609375,-0.40515607595443726,-0.18829907476902008,-0.7423534393310547
1760966901177184300,3.934184326171875,-0.4857902228832245,0.005955931730568409,-0.2536616027355194
1760966901186872300,3.943872314453125,-0.7411317229270935,-0.264046311378479,0.31444263458251953
1760966901196560600,3.953560546875,-1.1491893529891968,-0.921336829662323,0.5245801210403442
1760966901206248700,3.963248779296875,-1.3959786891937256,-1.4906628131866455,0.10797034949064255
1760966901215937000,3.97293701171875,-1.2664754390716553,-1.4674499034881592,-0.8071050643920898
1760966901225625000,3.982625,-0.9231693744659424,-0.8565851449966431,-1.7771583795547485
1760966901235313200,3.992313232421875,-0.6604975461959839,-0.16875138878822327,-2.2866196632385254
1760966901245001200,4.002001220703125,-0.6018545031547546,-0.06612611562013626,-2.1448988914489746
1760966901254689500,4.011689453125,-0.6482802629470825,-0.44241881370544434,-1.5560252666473389
1760966901264377600,4.021377685546875,-0.6360629796981812,-0.790611743927002,-0.735023021697998
1760966901274066000,4.03106591796875,-0.541989803314209,-0.9054543375968933,0.12385283410549164
1760966901283754000,4.04075390625,-0.44180795550346375,-0.949436604976654,0.7884737253189087
1760966901293442000,4.050442138671875,-0.41615164279937744,-1.021518588066101,1.1452187299728394
1760966901303130400,4.06013037109375,-0.5041161775588989,-1.0728312730789185,1.1684316396713257
1760966901312818400,4.069818359375,-0.6641627550125122,-1.0251837968826294,0.9167553186416626
1760966901322506500,4.079506591796875,-0.81810063123703,-0.818711519241333,0.49892380833625793
1760966901332194800,4.08919482421875,-0.9256128668785095,-0.4534143805503845,0.02000582218170166
1760966901341883000,4.0988828125,-0.9818124175071716,-0.04780016839504242,-0.42592546343803406
1760966901351571000,4.108571044921875,-1.0221295356750488,0.2393062710762024,-0.7509055137634277
1760966901361259300,4.11825927734375,-1.0563379526138306,0.33826637268066406,-0.892626166343689
1760966901370947300,4.127947265625,-1.0697768926620483,0.3040579557418823,-0.902400016784668
1760966901380635600,4.1376357421875,-1.068555235862732,0.17088942229747772,-0.8559742569923401
1760966901390323700,4.14732373046875,-1.0257946252822876,-0.014813470654189587,-0.7521272301673889
1760966901400011800,4.15701171875,-0.9524909257888794,-0.1980729103088379,-0.5945241451263428
1760966901409700000,4.1667001953125,-0.8449786901473999,-0.3116937577724457,-0.42103853821754456
1760966901419388200,4.17638818359375,-0.7130318880081177,-0.2799287736415863,-0.2842048406600952
1760966901429076200,4.186076171875,-0.541989803314209,-0.1467602699995041,-0.17424917221069336
1760966901438764500,4.1957646484375,-0.3452913165092468,-0.05757400393486023,-0.05696314200758934
1760966901448452600,4.20545263671875,-0.15958842635154724,0.057268574833869934,0.07131846249103546
1760966901458141000,4.215140869140625,0.012675444595515728,0.2649625837802887,0.21059563755989075
1760966901467829000,4.2248291015625,0.18005239963531494,0.4689914286136627,0.38408124446868896
1760966901477517000,4.23451708984375,0.34498587250709534,0.569173276424408,0.5893318057060242
1760966901487205400,4.244205322265625,0.4903717041015625,0.5557342171669006,0.7640390992164612
1760966901496893400,4.2538935546875,0.6137663722038269,0.46288278698921204,0.8898772597312927
1760966901506581500,4.26358154296875,0.689513623714447,0.3162752389907837,0.9851721525192261
1760966901516269800,4.273269775390625,0.7017309069633484,0.2490801066160202,1.0425934791564941
1760966901525958000,4.2829580078125,0.699287474155426,0.13545925915241241,0.9753983616828918
1760966901535646000,4.29264599609375,0.6687442064285278,-0.15042544901371002,0.5978838801383972
1760966901545334300,4.302334228515625,0.6027708053588867,-0.2444986253976822,-0.08261945843696594
1760966901555022300,4.312022216796875,0.5429060459136963,0.42012226581573486,-0.81810063123703
1760966901564710700,4.321710693359375,0.4805978536605835,1.7359249591827393,-1.2041672468185425
1760966901574398700,4.331398681640625,0.4634936451911926,2.785390615463257,-0.9781472086906433
1760966901584086800,4.341086669921875,0.5832231640815735,3.0077455043792725,-0.29397866129875183
1760966901593775000,4.350775146484375,0.7041743993759155,2.5105016231536865,0.40118545293807983
1760966901603463200,4.360463134765625,0.8006910085678101,1.6186389923095703,0.8202387094497681
1760966901613151500,4.3701513671875,0.9179770350456238,0.680350661277771,0.9644027948379517
1760966901622839600,4.379839599609375,1.0352630615234375,-0.058795735239982605,0.9656245112419128
1760966901632527600,4.389527587890625,1.190422773361206,-0.38011062145233154,0.9546289443969727
1760966901642216000,4.3992158203125,1.3211477994918823,-0.17608177661895752,0.9179770350456238
1760966901651904000,4.408904052734375,1.366351842880249,0.28328853845596313,0.8080213665962219
1760966901661592300,4.41859228515625,1.3626866340637207,0.6534726023674011,0.6540834903717041
1760966901671280400,4.4282802734375,1.3761255741119385,0.8208495378494263,0.47326749563217163
1760966901680968400,4.437968505859375,1.4237730503082275,0.856279730796814,0.2692386507987976
1760966901690656800,4.44765673828125,1.4262166023254395,0.801301896572113,0.0383317656815052
1760966901700344800,4.4573447265625,1.310152292251587,0.7316632866859436,-0.19501857459545135
1760966901710033000,4.467032958984375,1.123227596282959,0.6400335431098938,-0.40637779235839844
1760966901719721200,4.47672119140625,0.9216422438621521,0.5264127254486084,-0.5920807123184204
1760966901729409300,4.4864091796875,0.7310523986816406,0.4384481906890869,-0.7728966474533081
1760966901739097300,4.496097412109375,0.5917752385139465,0.3468184769153595,-0.8938478827476501
1760966901748785700,4.50578564453125,0.5160280466079712,0.2747364342212677,-0.8620828986167908
1760966901758473700,4.5154736328125,0.4659371078014374,0.1928805559873581,-0.6629409790039062
1760966901768162000,4.525162109375,0.4182896614074707,0.01695149764418602,-0.3220784664154053
1760966901777850000,4.53485009765625,0.38041603565216064,-0.19929464161396027,0.07376192510128021
1760966901787538200,4.5445380859375,0.3303251266479492,-0.3666715919971466,0.3889681398868561
1760966901797226500,4.5542265625,0.24480405449867249,-0.4754055142402649,0.5245801210403442
1760966901806914600,4.56391455078125,0.11774418503046036,-0.5022835731506348,0.48181959986686707
1760966901816603000,4.573602783203125,-0.055741410702466965,-0.4851793646812439,0.2851211428642273
1760966901826291000,4.583291015625,-0.2695440948009491,-0.43020153045654297,-0.016646064817905426
1760966901835979300,4.592979248046875,-0.44669488072395325,-0.31902414560317993,-0.29153522849082947
1760966901845667300,4.602667236328125,-0.5652026534080505,-0.2603811025619507,-0.45646870136260986
1760966901855355400,4.61235546875,-0.6079631447792053,-0.26160284876823425,-0.44791659712791443
1760966901865043700,4.622043701171875,-0.585972011089325,-0.2909243404865265,-0.20601414144039154
1760966901874731800,4.631731689453125,-0.6311760544776917,-0.3727802336215973,0.16661337018013
1760966901884420000,4.641420166015625,-0.8315396904945374,-0.7209731340408325,0.37430739402770996
1760966901894108200,4.651108154296875,-1.0819942951202393,-1.2768601179122925,0.14462223649024963
1760966901903796200,4.660796142578125,-1.133306860923767,-1.6775873899459839,-0.5236638188362122
1760966901913484500,4.670484619140625,-0.9866993427276611,-1.5822924375534058,-1.3629920482635498
1760966901923172600,4.680172607421875,-0.7814487814903259,-1.0105230808258057,-2.022726058959961
1760966901932861000,4.68986083984375,-0.6287325620651245,-0.4864010810852051,-2.1522293090820312
1760966901942549000,4.699549072265625,-0.5884155035018921,-0.4754055142402649,-1.7490586042404175
1760966901952237000,4.709237060546875,-0.6751583218574524,-0.755181610584259,-0.9744820594787598
1760966901961925400,4.71892529296875,-0.7521272301673889,-0.994640588760376,0.001679878099821508
1760966901971613400,4.728613525390625,-0.7936660647392273,-1.1827869415283203,0.845894992351532
1760966901981301800,4.7383017578125,-0.873078465461731,-1.3098467588424683,1.2735003232955933
1760966901990989800,4.74798974609375,-0.9622647166252136,-1.3049598932266235,1.2527309656143188
1760966902000678000,4.757677978515625,-1.0343468189239502,-1.0618356466293335,0.8886555433273315
1760966902010366200,4.7673662109375,-1.1113157272338867,-0.6036871075630188,0.34498587250709534
1760966902020054300,4.77705419921875,-1.1992802619934082,-0.033139415085315704,-0.2536616027355194
1760966902029742600,4.78674267578125,-1.2848013639450073,0.48243045806884766,-0.7643445730209351
1760966902039430700,4.7964306640625,-1.3532181978225708,0.7841976881027222,-1.114980936050415
1760966902049118700,4.80611865234375,-1.3556616306304932,0.8294016718864441,-1.2652536630630493
1760966902058807000,4.81580712890625,-1.289688229560852,0.7047852277755737,-1.2066106796264648
1760966902068495000,4.8254951171875,-1.1687370538711548,0.4641045033931732,-1.0001384019851685
1760966902078183400,4.835183349609375,-1.019685983657837,0.16478078067302704,-0.698371171951294
1760966902087871500,4.84487158203125,-0.8645263910293579,-0.13454297184944153,-0.3623955249786377
1760966902097559600,4.8545595703125,-0.736244797706604,-0.43631017208099365,-0.05696314200758934
1760966902107247900,4.864247802734375,-0.6568323373794556,-0.697760283946991,0.1568395346403122
1760966902116936000,4.87393603515625,-0.5798633694648743,-0.7319687008857727,0.2130390852689743
1760966902126624300,4.883624267578125,-0.449138343334198,-0.5267181396484375,0.06643154472112656
1760966902136312300,4.893312255859375,-0.2487746775150299,-0.19685117900371552,-0.18524473905563354
1760966902146000400,4.90300048828125,-0.016646064817905426,0.15378521382808685,-0.3367392122745514
1760966902155688700,4.912688720703125,0.19593487679958344,0.494647741317749,-0.2744309902191162
1760966902165376800,4.922376708984375,0.38408124446868896,0.718224287033081,0.018784092739224434
1760966902175065000,4.932065185546875,0.5551233887672424,0.7890845537185669,0.485484778881073
1760966902184753200,4.941753173828125,0.7053961157798767,0.743880569934845,0.9521854519844055
1760966902194441200,4.951441162109375,0.8080213665962219,0.6046034097671509,1.3016000986099243
1760966902204129500,4.961129638671875,0.8544471263885498,0.3969093859195709,1.5520546436309814
1760966902213817600,4.970817626953125,0.8544471263885498,0.20998476445674896,1.7096577882766724
1760966902223506000,4.980505859375,0.8043562173843384,0.06337722390890121,1.7206534147262573
1760966902233194000,4.990194091796875,0.7615956664085388,-0.17486004531383514,1.4017819166183472
1760966902242882000,4.999882080078125,0.7701478004455566,-0.3043633699417114,0.6687442064285278
1760966902252570400,5.0095703125,0.8031344413757324,0.16966769099235535,-0.3159697949886322
1760966902262258400,5.019258544921875,0.7786998748779297,1.3119847774505615,-1.0844377279281616
1760966902271946800,5.02894677734375,0.6956222653388977,2.428645610809326,-1.2591450214385986
1760966902281634800,5.038634765625,0.6235402226448059,2.880685567855835,-0.8645263910293579
1760966902291323000,5.048322998046875,0.5844448804855347,2.7096433639526367,-0.24022257328033447
1760966902301011200,5.05801123046875,0.5905535221099854,2.1244349479675293,0.3303251266479492
1760966902310699300,5.06769921875,0.7053961157798767,1.343749761581421,0.7591522336006165
1760966902320387600,5.0773876953125,0.8666644096374512,0.5581777095794678,1.0841323137283325
1760966902330075600,5.08707568359375,1.014493703842163,-0.0038179049734026194,1.3602432012557983
1760966902339763700,5.096763671875,1.1024582386016846,-0.24205516278743744,1.5825979709625244
1760966902349452000,5.1064521484375,1.1268928050994873,-0.13332124054431915,1.677892804145813
1760966902359140000,5.11614013671875,1.1195623874664307,0.18310672044754028,1.5838196277618408
1760966902368828400,5.125828369140625,1.1000148057937622,0.5557342171669006,1.3345868587493896
1760966902378516500,5.1355166015625,1.0719150304794312,0.8489493131637573,1.0010546445846558
1760966902388204500,5.14520458984375,1.0193805694580078,0.9137009978294373,0.6528617143630981
1760966902397892900,5.154892822265625,0.9045380353927612,0.7157807946205139,0.34376415610313416
1760966902407581000,5.164580810546875,0.734717607498169,0.4079049527645111,0.08231402933597565
1760966902417269200,5.174269287109375,0.568562388420105,0.18555018305778503,-0.16936226189136505
1760966902426957300,5.183957275390625,0.4402807950973511,0.10858121514320374,-0.4198168218135834
1760966902436645400,5.193645263671875,0.35964664816856384,0.1049160286784172,-0.6226239204406738
1760966902446333700,5.203333740234375,0.29367324709892273,0.09880737960338593,-0.7276926636695862
1760966902456021800,5.213021728515625,0.23014330863952637,0.04993819445371628,-0.6898190379142761
1760966902465710000,5.2227099609375,0.16905683279037476,-0.07589995115995407,-0.45646870136260986
1760966902475398100,5.232398193359375,0.12873975932598114,-0.32268932461738586,-0.07773254066705704
1760966902485086200,5.242086181640625,0.12018764764070511,-0.6415607333183289,0.30833399295806885
1760966902494774500,5.2517744140625,0.10063996911048889,-0.9286671876907349,0.5465712547302246
1760966902504462600,5.261462646484375,0.007788525894284248,-1.1571305990219116,0.5526798963546753
1760966902514151000,5.27115087890625,-0.16081015765666962,-1.2731949090957642,0.34865108132362366
1760966902523839000,5.2808388671875,-0.3367392122745514,-1.1913390159606934,-0.01908952370285988
1760966902533527000,5.290527099609375,-0.46746426820755005,-0.8907935619354248,-0.46257734298706055
1760966902543215400,5.30021533203125,-0.540768027305603,-0.49373146891593933,-0.8046616315841675
1760966902552903400,5.3099033203125,-0.5615374445915222,-0.18585561215877533,-0.9048434495925903
1760966902562591700,5.319591796875,-0.5041161775588989,-0.08689551800489426,-0.6910407543182373
1760966902572279800,5.32927978515625,-0.40515607595443726,-0.26282456517219543,-0.19135339558124542
1760966902581968000,5.3389677734375,-0.41126471757888794,-0.7307469844818115,0.39629852771759033
1760966902591656200,5.34865625,-0.6421716213226318,-1.4992148876190186,0.7310523986816406
1760966902601344300,5.35834423828125,-1.0221295356750488,-2.3202171325683594,0.4915934205055237
1760966902611032600,5.368032470703125,-1.2188279628753662,-2.657414436340332,-0.40149086713790894
1760966902620720600,5.377720703125,-0.9915862679481506,-2.1357359886169434,-1.6965242624282837
1760966902630408700,5.38740869140625,-0.5151117444038391,-0.9066760540008545,-2.853502035140991
1760966902640097000,5.397096923828125,-0.07528908550739288,0.310166597366333,-3.3348636627197266
1760966902649785000,5.40678515625,0.09819651395082474,0.7060069441795349,-2.8828237056732178
1760966902659473400,5.416473388671875,0.001679878099821508,0.26740604639053345,-1.5865685939788818
1760966902669161500,5.426161376953125,-0.18646647036075592,-0.6134609580039978,0.14950916171073914
1760966902678849500,5.435849609375,-0.35384342074394226,-1.548084020614624,1.6009238958358765
1760966902688537900,5.445537841796875,-0.46135562658309937,-2.188270330429077,2.33884859085083
1760966902698226000,5.455225830078125,-0.4967857897281647,-2.3397648334503174,2.319300889968872
1760966902707914200,5.464914306640625,-0.49312058091163635,-1.9622503519058228,1.7133229970932007
1760966902717602300,5.474602294921875,-0.5725330114364624,-1.2927426099777222,0.8605557680130005
1760966902727290400,5.484290283203125,-0.7289143800735474,-0.6354520916938782,0.054214250296354294
1760966902736978700,5.493978759765625,-0.892626166343689,-0.10277800261974335,-0.540768027305603
1760966902746666800,5.503666748046875,-1.049007534980774,0.32971426844596863,-0.9146173000335693
1760966902756355000,5.51335498046875,-1.1748456954956055,0.6290380358695984,-1.086881160736084
1760966902766043100,5.523043212890625,-1.224936604499817,0.6998983025550842,-1.0697768926620483
1760966902775731200,5.532731201171875,-1.1943933963775635,0.5545125007629395,-0.9146173000335693
1760966902785419500,5.54241943359375,-1.1271982192993164,0.2857320010662079,-0.6776017546653748
1760966902795107600,5.552107666015625,-1.0404554605484009,-0.0539088174700737,-0.4381427764892578
1760966902804795600,5.561795654296875,-0.9366084337234497,-0.2860374450683594,-0.2744309902191162
1760966902814484000,5.57148388671875,-0.7961094975471497,-0.26771149039268494,-0.2328922003507614
1760966902824172000,5.581172119140625,-0.6165152788162231,-0.06001746281981468,-0.27320927381515503
1760966902833860400,5.5908603515625,-0.4198168218135834,0.19043709337711334,-0.3000873327255249
1760966902843548400,5.60054833984375,-0.22678354382514954,0.3712530732154846,-0.2292270064353943
1760966902853236500,5.610236572265625,-0.020311253145337105,0.47143489122390747,-0.0154243353754282
1760966902862924800,5.6199248046875,0.21426081657409668,0.5374082922935486,0.33765551447868347
1760966902872612900,5.62961279296875,0.4427242577075958,0.5227475166320801,0.7640390992164612
1760966902882301200,5.63930126953125,0.5697841048240662,0.43111783266067505,1.1574360132217407
1760966902891989200,5.6489892578125,0.6149880886077881,0.2942841053009033,1.3907864093780518
1760966902901677300,5.65867724609375,0.6369792222976685,0.25274530053138733,1.3712387084960938
1760966902911365600,5.66836572265625,0.7041743993759155,0.5190823674201965,1.1879792213439941
1760966902921053700,5.6780537109375,0.7774781584739685,0.9955568909645081,0.9998329281806946
1760966902930742000,5.687741943359375,0.7652608752250671,1.3681844472885132,0.9301943182945251
1760966902940430000,5.69743017578125,0.6528617143630981,1.3242021799087524,0.9411898851394653
1760966902959806500,5.716806396484375,0.12996147572994232,0.6864593029022217,0.6223185062408447
1760966902969494500,5.72649462890625,0.007788525894284248,0.9955568909645081,0.2643517255783081
1760966902979182600,5.7361826171875,0.0591011680662632,1.5917608737945557,-0.045967575162649155
1760966902988871000,5.745870849609375,0.17638720571994781,2.0279183387756348,-0.17913609743118286
1760966902998559000,5.75555908203125,0.2692386507987976,2.1500914096832275,-0.18890993297100067
1760966903008247000,5.7652470703125,0.3364337682723999,2.0462443828582764,-0.14370593428611755
1760966903017935400,5.774935302734375,0.4744892120361328,1.7444771528244019,-0.04108065739274025
1760966903027623400,5.78462353515625,0.6821832656860352,1.2838850021362305,0.16050471365451813
1760966903037311700,5.794311767578125,0.919198751449585,0.8000801205635071,0.4610501825809479
1760966903046999800,5.803999755859375,1.1256710290908813,0.3565923273563385,0.7884737253189087
1760966903056687900,5.81368798828125,1.2563961744308472,0.06215549260377884,1.0511455535888672
1760966903066376200,5.823376220703125,1.326034665107727,-0.012370011769235134,1.1879792213439941
1760966903076064300,5.833064208984375,1.3675734996795654,0.11468986421823502,1.169653296470642
1760966903085752600,5.842752685546875,1.3675734996795654,0.3113883137702942,0.9888373613357544
1760966903095440600,5.852440673828125,1.2918262481689453,0.3981311321258545,0.6675224900245667
1760966903105128700,5.862128662109375,1.1293362379074097,0.4042397737503052,0.25091269612312317
1760966903114817000,5.871817138671875,0.9240856766700745,0.45188722014427185,-0.19990549981594086
1760966903124505000,5.881505126953125,0.7261655330657959,0.5606211423873901,-0.6262891292572021
1760966903134193200,5.891193115234375,0.5367974042892456,0.597273051738739,-0.9793689846992493
1760966903143881500,5.900881591796875,0.41218101978302,0.494647741317749,-1.1968368291854858
1760966903153569500,5.910569580078125,0.402407169342041,0.3052796721458435,-1.1907281875610352
1760966903163257900,5.9202578125,0.44638943672180176,0.10247256606817245,-0.9256128668785095
1760966903172946000,5.92994580078125,0.485484778881073,-0.12721258401870728,-0.42959064245224
1760966903182634000,5.939634033203125,0.45249807834625244,-0.3923279047012329,0.1824958473443985
1760966903192322300,5.949322265625,0.30222535133361816,-0.6745474338531494,0.7237220406532288
1760966903202010400,5.95901025390625,0.08231402933597565,-0.9506583213806152,1.00594162940979
1760966903211698400,5.968698486328125,-0.1766926348209381,-1.1253656148910522,0.9644027948379517
1760966903221386800,5.97838671875,-0.42103853821754456,-1.1717913150787354,0.578336238861084
1760966903231074800,5.98807470703125,-0.5725330114364624,-1.0349576473236084,-0.07284562289714813
1760966903240763000,5.997762939453125,-0.6201804876327515,-0.6782126426696777,-0.7814487814903259
1760966903250451200,6.007451171875,-0.6275108456611633,-0.3422369956970215,-1.2970186471939087
1760966903260139300,6.01713916015625,-0.615293562412262,-0.2689332067966461,-1.5083779096603394
1760966903269827600,6.02682763671875,-0.5517635941505432,-0.295811265707016,-1.3312270641326904
1760966903279515600,6.036515625,-0.5395463109016418,-0.27137666940689087,-0.7411317229270935
1760966903289203700,6.04620361328125,-0.7985529899597168,-0.5206094980239868,-0.014202605932950974
1760966903298892000,6.05589208984375,-1.242040753364563,-1.131474256515503,0.37919431924819946
1760966903308580000,6.065580078125,-1.43873929977417,-1.7081305980682373,0.0591011680662632
1760966903318268200,6.07526806640625,-1.2017236948013306,-1.733786940574646,-0.92072594165802
1760966903327956500,6.08495654296875,-0.7215840220451355,-1.177899956703186,-2.1387903690338135
1760966903337644500,6.09464453125,-0.23533566296100616,-0.687986433506012,-3.0392050743103027
1760966903347332600,6.10433251953125,0.028557928279042244,-0.818711519241333,-3.307985544204712
1760966903357021000,6.11402099609375,0.056657709181308746,-1.1131483316421509,-2.871828079223633
1760966903366709000,6.123708984375,-0.04230238497257233,-1.1925607919692993,-1.846796989440918
1760966903376397300,6.133397216796875,-0.19990549981594086,-1.2377647161483765,-0.6409498453140259
1760966903386085400,6.14308544921875,-0.4271472096443176,-1.34405517578125,0.21548254787921906
1760966903395773400,6.1527734375,-0.6519454121589661,-1.3599376678466797,0.5392408967018127
1760966903405461800,6.162461669921875,-0.8242093324661255,-1.1351394653320312,0.42684176564216614
1760966903415149800,6.17214990234375,-0.9561560750007629,-0.725860059261322,0.056657709181308746
1760966903424838000,6.181837890625,-1.0636682510375977,-0.28237223625183105,-0.31230461597442627
1760966903434526200,6.191526123046875,-1.1369720697402954,0.08048143237829208,-0.5114465355873108
1760966903444214300,6.20121435546875,-1.172402262687683,0.3040579557418823,-0.5273290276527405
1760966903453902600,6.210902587890625,-1.1748456954956055,0.38102689385414124,-0.41004297137260437
1760966903463590700,6.220590576171875,-1.113759160041809,0.3614792227745056,-0.2536616027355194
1760966903473278700,6.23027880859375,-0.9854776263237,0.2808450758457184,-0.1510363221168518
1760966903482967000,6.239967041015625,-0.8547525405883789,0.19898919761180878,-0.13393209874629974
1760966903492655000,6.249655029296875,-0.754570722579956,0.1207985132932663,-0.1669187992811203
1760966903502343200,6.25934326171875,-0.6776017546653748,-0.0062613640911877155,-0.22434009611606598
1760966903512031500,6.269031494140625,-0.6140718460083008,-0.1418733447790146,-0.30741769075393677
1760966903521719600,6.278719482421875,-0.5578722357749939,-0.2286161482334137,-0.3685041666030884
1760966903531407600,6.28840771484375,-0.46624255180358887,-0.18463388085365295,-0.3208567202091217
1760966903541096000,6.298095947265625,-0.3110828995704651,-0.0038179049734026194,-0.1107192412018776
1760966903550784000,6.307783935546875,-0.08872810751199722,0.25763222575187683,0.187382772564888
1760966903560472000,6.31747216796875,0.1715002804994583,0.4970912039279938,0.44150251150131226
1760966903570160400,6.327160400390625,0.45738500356674194,0.7072287201881409,0.6333140730857849
1760966903579848400,6.336848388671875,0.7750346660614014,0.8697187304496765,0.8190169334411621
1760966903589536500,6.34653662109375,1.0914626121520996,0.8819360136985779,0.9741765856742859
1760966903599224800,6.356224853515625,1.3150391578674316,0.8281798958778381,1.0926843881607056
1760966903608913000,6.365912841796875,1.4384338855743408,0.8770490884780884,1.1916444301605225
1760966903618601200,6.375601318359375,1.484859585762024,0.9527963399887085,1.2771655321121216
1760966903628289300,6.385289306640625,1.3920080661773682,0.8660535216331482,1.2160791158676147
1760966903637977300,6.394977294921875,1.179427146911621,0.49220430850982666,0.855668842792511
1760966903647665700,6.404665771484375,0.9851721525192261,0.27107125520706177,0.21914774179458618
1760966903657353700,6.414353759765625,0.8617774844169617,0.8281798958778381,-0.31841325759887695
1760966903667041800,6.424041748046875,0.7615956664085388,1.788459300994873,-0.48334676027297974
1760966903676730000,6.433730224609375,0.7273872494697571,2.559370756149292,-0.18646647036075592
1760966903686418200,6.443418212890625,0.8031344413757324,2.7084217071533203,0.36453354358673096
1760966903696106500,6.4531064453125,0.8666644096374512,2.2954771518707275,0.8275690674781799
1760966903705794600,6.462794677734375,0.9717331528663635,1.6284128427505493,1.0572541952133179
1760966903715482600,6.472482666015625,1.1195623874664307,0.9039271473884583,1.1158971786499023
1760966903725170700,6.482170654296875,1.251509189605713,0.3016144931316376,1.141553521156311
1760966903734859000,6.49185888671875,1.31870436668396,0.030390523374080658,1.2673916816711426
1760966903744547000,6.501547119140625,1.3138173818588257,0.1366809904575348,1.4567598104476929
1760966903754235400,6.5112353515625,1.2331832647323608,0.4641045033931732,1.5532764196395874
1760966903763923500,6.52092333984375,1.1085668802261353,0.7499892115592957,1.4714205265045166
1760966903773611500,6.530611572265625,1.024267554283142,0.9088140726089478,1.1830923557281494
1760966903783299800,6.5402998046875,0.9912807941436768,0.947909414768219,0.7163916826248169
1760966903792988000,6.54998779296875,0.9558506608009338,0.8318451046943665,0.187382772564888
1760966903802676000,6.559676025390625,0.8801034092903137,0.6217076182365417,-0.2903134822845459
1760966903812364300,6.5693642578125,0.7750346660614014,0.38469210267066956,-0.6653844714164734
1760966903822052400,6.57905224609375,0.6638572812080383,0.15745039284229279,-0.9585995674133301
1760966903831740400,6.588740478515625,0.588110089302063,-0.01359174121171236,-1.162628412246704
1760966903841428700,6.5984287109375,0.5416843295097351,-0.05146535858511925,-1.2286018133163452
1760966903851116800,6.60811669921875,0.4659371078014374,0.010842849500477314,-1.1174243688583374
1760966903860804900,6.617804931640625,0.3828594982624054,0.009621120058000088,-0.8510873317718506
1760966903870493200,6.6274931640625,0.3266599476337433,-0.1565341055393219,-0.4845684766769409
1760966903880181200,6.63718115234375,0.291229784488678,-0.458301305770874,-0.09972367435693741
1760966903889869600,6.64686962890625,0.22647811472415924,-0.7771727442741394,0.20448698103427887
1760966903899557600,6.6565576171875,0.13362666964530945,-1.0007492303848267,0.34376415610313416
1760966903909245700,6.66624560546875,0.005345067009329796,-1.0691660642623901,0.30344706773757935
1760966903918933800,6.675933837890625,-0.17913609743118286,-0.949436604976654,0.13484840095043182
1760966903928622000,6.6856220703125,-0.41126471757888794,-0.6843212842941284,-0.09728021919727325
1760966903938310100,6.69531005859375,-0.6519454121589661,-0.3862192630767822,-0.33918267488479614
1760966903947998500,6.70499853515625,-0.8254310488700867,-0.16264274716377258,-0.53221595287323
1760966903957686500,6.7146865234375,-0.8816305994987488,-0.10644318908452988,-0.6018545031547546
1760966903967374600,6.72437451171875,-0.8462004065513611,-0.3043633699417114,-0.5199986696243286
1760966903977062700,6.734062744140625,-0.8523091077804565,-0.6769908666610718,-0.27198755741119385
1760966903986751000,6.7437509765625,-1.0172425508499146,-1.1388046741485596,-0.009315688163042068
1760966903996439000,6.75343896484375,-1.310457706451416,-1.5566362142562866,-0.05818486958742142
1760966904006127400,6.76312744140625,-1.493717074394226,-1.6079487800598145,-0.5395463109016418
1760966904015815400,6.7728154296875,-1.3837614059448242,-1.2121084928512573,-1.3788745403289795
1760966904025503500,6.78250341796875,-1.1015418767929077,-0.5157225728034973,-2.185215950012207
1760966904035191800,6.79219189453125,-0.9170607328414917,-0.02214384824037552,-2.467435598373413
1760966904044880000,6.8018798828125,-0.873078465461731,-0.24572035670280457,-2.1925463676452637
1760966904054568000,6.81156787109375,-0.8718567490577698,-0.9506583213806152,-1.5340341329574585
1760966904064256300,6.82125634765625,-0.8229875564575195,-1.529758095741272,-0.7423534393310547
1760966904073944300,6.8309443359375,-0.7215840220451355,-1.7411173582077026,-0.0642935186624527
1760966904083632400,6.84063232421875,-0.6360629796981812,-1.781434416770935,0.32421648502349854
1760966904093320700,6.85032080078125,-0.5847502946853638,-1.742339015007019,0.3315468728542328
1760966904103008800,6.8600087890625,-0.595745861530304,-1.5041017532348633,-0.009315688163042068
1760966904112696800,6.86969677734375,-0.7289143800735474,-0.9384410381317139,-0.49312058091163635
1760966904122385200,6.87938525390625,-0.9133955836296082,-0.28237223625183105,-0.9390518665313721
1760966904132073200,6.8890732421875,-1.0563379526138306,0.24052800238132477,-1.224936604499817
1760966904141761300,6.89876123046875,-1.1320852041244507,0.6119337677955627,-1.3238966464996338
1760966904151449600,6.90844970703125,-1.1638500690460205,0.7707586288452148,-1.2457059621810913
1760966904161137700,6.9181376953125,-1.1479676961898804,0.6241511106491089,-1.0257946252822876
1760966904170825700,6.92782568359375,-1.0990984439849854,0.24174973368644714,-0.7203623056411743
1760966904180514000,6.93751416015625,-1.0538945198059082,-0.16752967238426208,-0.41004297137260437
1760966904190202000,6.9472021484375,-1.0270164012908936,-0.4558578431606293,-0.16814053058624268
1760966904199890200,6.95689013671875,-0.9952514171600342,-0.6134609580039978,-0.017867794260382652
1760966904209578500,6.96657861328125,-0.930499792098999,-0.6256782412528992,0.04810560122132301
1760966904219266600,6.9762666015625,-0.8352048993110657,-0.40576693415641785,0.10919208079576492
1760966904228954600,6.98595458984375,-0.7179188132286072,0.002290742937475443,0.20570871233940125
1760966904238643000,6.995642822265625,-0.5578722357749939,0.44089165329933167,0.29367324709892273
1760966904248331000,7.0053310546875,-0.3355174660682678,0.771980345249176,0.3669770061969757
1760966904258019000,7.01501904296875,-0.07651081681251526,0.8831577301025391,0.47204574942588806
1760966904267707400,7.024707275390625,0.19837833940982819,0.7890845537185669,0.6357575058937073
1760966904277395500,7.0343955078125,0.45738500356674194,0.5899426341056824,0.8520036339759827
1760966904287083500,7.04408349609375,0.7102830410003662,0.3981311321258545,1.1171189546585083
1760966904296771800,7.053771728515625,0.9277508854866028,0.2991710305213928,1.39445161819458
1760966904306460000,7.0634599609375,1.0706932544708252,0.33460119366645813,1.670562505722046
1760966904316148000,7.07314794921875,1.114675521850586,0.41157013177871704,1.892917275428772
1760966904325836300,7.082836181640625,1.0377064943313599,0.40057456493377686,1.9576689004898071
1760966904335524400,7.0925244140625,0.873994767665863,0.1721111536026001,1.6864449977874756
1760966904345212400,7.10221240234375,0.7579304575920105,-0.1003345400094986,0.9155336022377014
1760966904354900700,7.111900634765625,0.7237220406532288,0.20631958544254303,-0.1815795600414276
1760966904364588800,7.1215888671875,0.7200568318367004,1.291215419769287,-1.0270164012908936
1760966904374276900,7.13127685546875,0.6760746240615845,2.561814069747925,-1.1418589353561401
1760966904383965200,7.140965087890625,0.5282453298568726,3.151909589767456,-0.5566505193710327
1760966904393653200,7.1506533203125,0.3987419903278351,2.930776596069336,0.27290382981300354
1760966904403341300,7.16034130859375,0.4659371078014374,2.3492331504821777,0.9265291690826416
1760966904413029600,7.170029541015625,0.7396045327186584,1.7847942113876343,1.2857176065444946
1760966904422717700,7.1797177734375,1.1220059394836426,1.3987276554107666,1.531285285949707
1760966904432405800,7.18940576171875,1.4176644086837769,1.0664172172546387,1.8391611576080322
1760966904442094000,7.199093994140625,1.550832986831665,0.7463240623474121,2.16536283493042
1760966904451782100,7.2087822265625,1.5056289434432983,0.4860956370830536,2.3400702476501465
1760966904461470200,7.21847021484375,1.3602432012557983,0.4604393243789673,2.2679882049560547
1760966904471158500,7.228158447265625,1.2258528470993042,0.7243329286575317,1.9503384828567505
1760966904480846600,7.2378466796875,1.152549147605896,1.107956051826477,1.4188861846923828
1760966904490534700,7.24753466796875,1.0487021207809448,1.3266456127166748,0.8116865754127502
1760966904500223000,7.257222900390625,0.883768618106842,1.3254238367080688,0.2582430839538574
1760966904509911000,7.2669111328125,0.7017309069633484,1.235015869140625,-0.20601414144039154
1760966904519599400,7.276599365234375,0.5514581799507141,1.0615302324295044,-0.5749764442443848
1760966904529287400,7.286287353515625,0.4696022868156433,0.7793107628822327,-0.8144354820251465
1760966904538975500,7.2959755859375,0.4659371078014374,0.41034841537475586,-0.8608611822128296
1760966904548663600,7.30566357421875,0.5160280466079712,0.08414662629365921,-0.6776017546653748
1760966904558352000,7.315351806640625,0.5612320303916931,-0.2078467458486557,-0.3220784664154053
1760966904568040000,7.3250400390625,0.5343539714813232,-0.5707004070281982,0.06643154472112656
1760966904577728000,7.33472802734375,0.4427242577075958,-0.9421061873435974,0.3254382014274597
1760966904587416300,7.344416259765625,0.34987279772758484,-1.179121732711792,0.3352120518684387
1760966904597104400,7.3541044921875,0.27290382981300354,-1.190117359161377,0.1360701322555542
1760966904606792400,7.36379248046875,0.20937390625476837,-1.0386228561401367,-0.19624030590057373
1760966904616480800,7.373480712890625,0.12751802802085876,-0.8541416525840759,-0.5713112950325012
1760966904626168800,7.3831689453125,0.050549060106277466,-0.672104001045227,-0.8266527652740479
1760966904635857000,7.39285693359375,-0.026419902220368385,-0.5731438994407654,-0.8804088830947876
1760966904645545200,7.402545166015625,-0.12415826320648193,-0.5878046154975891,-0.7521272301673889
1760966904655233300,7.4122333984375,-0.19379685819149017,-0.5340485572814941,-0.439364492893219
1760966904664921600,7.421921630859375,-0.22189663350582123,-0.46685341000556946,0.04932733252644539
1760966904674609700,7.431609619140625,-0.2805396616458893,-0.633008599281311,0.6296488642692566
1760966904684297700,7.441297607421875,-0.4943423271179199,-1.2194387912750244,0.9778417944908142
1760966904693985800,7.45098583984375,-0.8755219578742981,-1.9842414855957031,0.7518218159675598
1760966904703674000,7.460674072265625,-1.1369720697402954,-2.329991102218628,-0.14004075527191162
1760966904713362200,7.470362060546875,-1.0648900270462036,-1.9695807695388794,-1.4240784645080566
1760966904723050200,7.48005029296875,-0.7423534393310547,-1.042288064956665,-2.623816967010498
1760966904732738600,7.489738525390625,-0.4405862092971802,-0.06612611562013626,-3.264003276824951
1760966904742426600,7.499426513671875,-0.3220784664154053,0.30283620953559875,-3.193142890930176
1760966904752114700,7.50911474609375,-0.2964221239089966,0.16600249707698822,-2.433227062225342
1760966904761803000,7.518802978515625,-0.2695440948009491,-0.28237223625183105,-1.154076337814331
1760966904771491000,7.528490966796875,-0.19868376851081848,-0.9347758293151855,0.18127411603927612
1760966904781179100,7.53817919921875,-0.11927134543657303,-1.5444189310073853,1.0645846128463745
1760966904790867500,7.547867431640625,-0.07528908550739288,-1.8767293691635132,1.338252067565918
1760966904800555500,7.557555419921875,-0.11438442766666412,-1.8364121913909912,1.0731366872787476
1760966904810243800,7.567243896484375,-0.2585485279560089,-1.4943280220031738,0.45127636194229126
1760966904819932000,7.576931884765625,-0.502894401550293,-0.994640588760376,-0.30253079533576965
1760966904829620000,7.586619873046875,-0.7936660647392273,-0.4851793646812439,-1.0062470436096191
1760966904839308000,7.59630810546875,-1.0453423261642456,-0.06856957077980042,-1.503490924835205
1760966904848996400,7.605996337890625,-1.1675152778625488,0.27107125520706177,-1.7869322299957275
1760966904858684400,7.615684326171875,-1.154076337814331,0.5325213670730591,-1.808923363685608
1760966904868372700,7.625372802734375,-1.047785758972168,0.6204859018325806,-1.5596904754638672
1760966904878060800,7.635060791015625,-0.9170607328414917,0.5031998753547668,-1.1577414274215698
1760966904887748900,7.644748779296875,-0.7887791395187378,0.33826637268066406,-0.6971494555473328
1760966904897437000,7.65443701171875,-0.6727148294448853,0.1562286615371704,-0.2597702443599701
1760966904907125200,7.664125244140625,-0.5994110703468323,-0.07101303339004517,0.06887500733137131
1760966904916813300,7.673813232421875,-0.5273290276527405,-0.2029598206281662,0.2179260104894638
1760966904926501400,7.68350146484375,-0.4283689260482788,-0.14309507608413696,0.19837833940982819
1760966904936189700,7.693189697265625,-0.29275694489479065,0.025503603741526604,0.04932733252644539
1760966904945877800,7.702877685546875,-0.12660172581672668,0.2380845546722412,-0.18035782873630524
1760966904955566000,7.712566162109375,0.09575305134057999,0.5056433081626892,-0.3208567202091217
1760966904965254100,7.722254150390625,0.3462076187133789,0.6742420196533203,-0.21945317089557648
1760966904974942200,7.731942138671875,0.5563451051712036,0.6779071688652039,0.1104138121008873
1760966904984630300,7.74163037109375,0.7005091905593872,0.5484038591384888,0.5539016127586365
1760966904994318600,7.751318603515625,0.7762564420700073,0.4298960864543915,0.9179770350456238
1760966905004006700,7.761006591796875,0.8055779337882996,0.4653262495994568,1.104901671409607
1760966905013695000,7.770695068359375,0.8092431426048279,0.660802960395813,1.180648922920227
1760966905023383000,7.780383056640625,0.7359393239021301,0.8770490884780884,1.161101222038269
1760966905033071000,7.790071044921875,0.6125446557998657,0.801301896572113,1.0206023454666138
1760966905042759200,7.79975927734375,0.5123628377914429,0.3822486400604248,0.7237220406532288
1760966905052447500,7.809447509765625,0.4402807950973511,0.06704241037368774,0.18493930995464325
1760966905062135600,7.819135498046875,0.3669770061969757,0.4641045033931732,-0.43081238865852356
1760966905071824000,7.828823974609375,0.3046688139438629,1.4610358476638794,-0.8571959733963013
1760966905081512000,7.838511962890625,0.3119991719722748,2.433532476425171,-0.8645263910293579
1760966905091200000,7.848199951171875,0.3718639314174652,2.760956048965454,-0.4552469849586487
1760966905100888300,7.857888427734375,0.4402807950973511,2.3712244033813477,0.08597921580076218
1760966905110576400,7.867576416015625,0.5209149122238159,1.4781399965286255,0.5221366882324219
1760966905120264400,7.877264404296875,0.5991056561470032,0.5203040838241577,0.8104648590087891
1760966905129952800,7.886952880859375,0.6663007736206055,-0.14309507608413696,1.004719853401184
1760966905139640800,7.896640869140625,0.7237220406532288,-0.45707955956459045,1.170875072479248
1760966905149329000,7.906328857421875,0.7432697415351868,-0.32757624983787537,1.2942698001861572
1760966905159017200,7.916017333984375,0.7493783831596375,0.0902552679181099,1.2930480241775513
1760966905168705300,7.925705322265625,0.8043562173843384,0.5459604263305664,1.1256710290908813
1760966905178393300,7.935393310546875,0.8947641849517822,0.8452841639518738,0.8605557680130005
1760966905188081700,7.94508154296875,0.9375247359275818,0.9100357890129089,0.5917752385139465
1760966905197769700,7.954769775390625,0.8825469017028809,0.7499892115592957,0.3572031855583191
1760966905207457800,7.964457763671875,0.7225003242492676,0.4689914286136627,0.16416990756988525
1760966905217146000,7.97414599609375,0.5575668215751648,0.1977674663066864,-0.006872228812426329
1760966905226834200,7.983834228515625,0.47326749563217163,-0.0062613640911877155,-0.17791436612606049
1760966905236522200,7.993522216796875,0.4647153913974762,-0.1357647031545639,-0.33429574966430664
1760966905246210600,8.00321044921875,0.4708240330219269,-0.14431680738925934,-0.45280352234840393
1760966905255898600,8.012898681640625,0.45738500356674194,-0.0746782198548317,-0.46624255180358887
1760966905265586700,8.022586669921875,0.4036289155483246,-0.15531237423419952,-0.3269653618335724
1760966905275275000,8.03227490234375,0.2753472924232483,-0.3813323378562927,-0.061850059777498245
1760966905284963000,8.041963134765625,0.11163553595542908,-0.6305651664733887,0.18005239963531494
1760966905294651100,8.051651123046875,-0.04230238497257233,-0.7930551767349243,0.24480405449867249
1760966905304339500,8.06133935546875,-0.18402300775051117,-0.8016073107719421,0.07620538026094437
1760966905314027500,8.071027587890624,-0.304974228143692,-0.717307984828949,-0.2536616027355194
1760966905323715600,8.080715576171874,-0.3868301212787628,-0.6293434500694275,-0.605519711971283
1760966905333404000,8.09040380859375,-0.4540252387523651,-0.5853611826896667,-0.8645263910293579
1760966905343092000,8.100092041015625,-0.502894401550293,-0.6232348084449768,-1.0062470436096191
1760966905352780000,8.109780029296875,-0.5346593856811523,-0.6305651664733887,-1.0367902517318726
1760966905362468400,8.11946826171875,-0.5933024287223816,-0.49739664793014526,-0.8852958083152771
1760966905372156400,8.129156494140625,-0.7276926636695862,-0.22983787953853607,-0.4234820008277893
1760966905381844500,8.138844482421876,-1.0172425508499146,-0.28725916147232056,0.18493930995464325
1760966905391532800,8.14853271484375,-1.3825397491455078,-0.9640973210334778,0.44150251150131226
1760966905401220900,8.158220947265624,-1.5633556842803955,-1.6360485553741455,0.09453132748603821
1760966905410909000,8.167908935546874,-1.4436261653900146,-1.763108491897583,-0.7631227970123291
1760966905420597200,8.17759716796875,-1.1271982192993164,-1.3965896368026733,-1.816253662109375
1760966905430285300,8.187285400390625,-0.7118101716041565,-0.6989820003509521,-2.5407392978668213
1760966905439973600,8.1969736328125,-0.39416050910949707,-0.05146535858511925,-2.6250386238098145
1760966905449661700,8.20666162109375,-0.35873034596443176,0.25274530053138733,-2.104581832885742
1760966905459349800,8.216349853515625,-0.4589121639728546,0.23686282336711884,-1.234710454940796
1760966905469037800,8.226037841796876,-0.47357290983200073,0.02672533318400383,-0.25732678174972534
1760966905478726100,8.23572607421875,-0.45280352234840393,-0.35445427894592285,0.5196931958198547
1760966905488414200,8.245414306640624,-0.4699077308177948,-0.7429642677307129,0.9020945429801941
1760966905498102500,8.2551025390625,-0.5371028780937195,-0.9738711714744568,0.948520302772522
1760966905507790600,8.26479052734375,-0.633619487285614,-0.9958623051643372,0.7554870247840881
1760966905517478700,8.274478759765625,-0.7594576478004456,-0.7686206102371216,0.402407169342041
1760966905527167000,8.2841669921875,-0.892626166343689,-0.3715584874153137,-0.04474584385752678
1760966905536855000,8.29385498046875,-1.0038034915924072,0.051159925758838654,-0.4857902228832245
1760966905546543000,8.303543212890625,-1.0722204446792603,0.37003132700920105,-0.8339831233024597
1760966905556231400,8.3132314453125,-1.1174243688583374,0.5410735011100769,-1.0746638774871826
1760966905565919500,8.32291943359375,-1.1284199953079224,0.5728384256362915,-1.1980586051940918
1760966905575607600,8.332607666015624,-1.068555235862732,0.4225656986236572,-1.1882847547531128
1760966905585296000,8.3422958984375,-0.9476040005683899,0.12324196845293045,-1.0600031614303589
1760966905594984000,8.35198388671875,-0.7631227970123291,-0.19929464161396027,-0.8755219578742981
1760966905604672000,8.361672119140625,-0.522442102432251,-0.347123920917511,-0.6543889045715332
1760966905614360300,8.3713603515625,-0.2854265570640564,-0.23594652116298676,-0.39049530029296875
1760966905624048400,8.38104833984375,-0.06673697382211685,-0.014813470654189587,-0.0691804364323616
1760966905633736700,8.39073681640625,0.125074565410614,0.19898919761180878,0.2704603672027588
1760966905643424800,8.4004248046875,0.281455934047699,0.29794928431510925,0.5575668215751648
1760966905653112800,8.41011279296875,0.42684176564216614,0.2747364342212677,0.7713695168495178
1760966905662801200,8.41980126953125,0.5844448804855347,0.23197589814662933,0.9057597517967224
1760966905672489200,8.4294892578125,0.7896954417228699,0.24785839021205902,0.9741765856742859
1760966905682177300,8.43917724609375,1.0034980773925781,0.24174973368644714,1.0071632862091064
1760966905691865600,8.448865478515625,1.198974847793579,0.2698495090007782,1.0474803447723389
1760966905701553700,8.4585537109375,1.3968950510025024,0.37980517745018005,1.152549147605896
1760966905711241700,8.46824169921875,1.5618284940719604,0.36880961060523987,1.290604591369629
1760966905720930000,8.477929931640626,1.6363539695739746,0.03283398225903511,1.4017819166183472
1760966905730618000,8.4876181640625,1.5581632852554321,-0.5535961985588074,1.354134440422058
1760966905740306400,8.497306396484374,1.289382815361023,-0.735633909702301,1.0596976280212402
1760966905749994500,8.506994384765624,0.8788816928863525,0.17577634751796722,0.6308705806732178
1760966905759682600,8.5166826171875,0.5099193453788757,1.6882774829864502,0.29733842611312866
1760966905769371000,8.526370849609375,0.28267768025398254,2.7597343921661377,0.23625195026397705
1760966905779059000,8.536058837890625,0.208152174949646,2.908785343170166,0.3107774555683136
1760966905788747000,8.5457470703125,0.34376415610313416,2.377332925796509,0.3352120518684387
1760966905798435300,8.555435302734375,0.5893318057060242,1.5685480833053589,0.2240346521139145
1760966905808123400,8.565123291015626,0.7982475757598877,0.7939714789390564,0.0334448479115963
1760966905817811500,8.5748115234375,0.9692896604537964,0.35414886474609375,-0.06307178735733032
1760966905827499800,8.584499755859374,1.0413717031478882,0.3052796721458435,0.02977965772151947
1760966905837187800,8.594187744140624,0.9900590777397156,0.6229293346405029,0.31444263458251953
1760966905846876200,8.603876220703125,0.9277508854866028,0.9906699657440186,0.661413848400116
1760966905856564200,8.613564208984375,0.938746452331543,1.1103994846343994,0.864220917224884
1760966905866252500,8.62325244140625,1.0413717031478882,1.0627520084381104,0.8947641849517822
1760966905875940600,8.632940673828125,1.179427146911621,0.8819360136985779,0.790917158126831
1760966905885628700,8.642628662109376,1.2331832647323608,0.6058251261711121,0.6479747891426086
1760966905895317000,8.65231689453125,1.1549925804138184,0.2649625837802887,0.5612320303916931
1760966905905005000,8.662005126953124,0.9790635108947754,-0.04780016839504242,0.5355756878852844
1760966905914693000,8.671693115234374,0.7958040833473206,-0.15531237423419952,0.4549415409564972
1760966905924381400,8.68138134765625,0.6504182815551758,-0.01359174121171236,0.23747368156909943
1760966905934069500,8.691069580078125,0.5502364635467529,0.22220206260681152,-0.055741410702466965
1760966905943757600,8.700757568359375,0.48914995789527893,0.41034841537475586,-0.25610506534576416
1760966905953446000,8.71044580078125,0.4085158109664917,0.42134398221969604,-0.24510949850082397
1760966905963134000,8.720134033203125,0.3119991719722748,0.23686282336711884,-0.05085449293255806
1760966905972822300,8.729822265625,0.23136503994464874,-0.04169152304530144,0.24724751710891724
1760966905982510300,8.73951025390625,0.15439607203006744,-0.4094321131706238,0.5697841048240662
1760966905992198400,8.749198486328124,0.018784092739224434,-0.7796161770820618,0.7994692921638489
1760966906001886700,8.75888671875,-0.20601414144039154,-1.0178533792495728,0.8348994255065918
1760966906011574800,8.76857470703125,-0.49312058091163635,-1.041066288948059,0.6528617143630981
1760966906021263000,8.77826318359375,-0.7826704978942871,-0.8651372194290161,0.301003634929657
1760966906030951200,8.787951171875,-0.9866993427276611,-0.6256782412528992,-0.10827577859163284
1760966906040639200,8.79763916015625,-1.0819942951202393,-0.4705185890197754,-0.43081238865852356
1760966906050327600,8.80732763671875,-1.1076505184173584,-0.38011062145233154,-0.522442102432251
1760966906060015600,8.817015625,-1.1418589353561401,-0.42042768001556396,-0.31352636218070984
1760966906069704000,8.826703857421874,-1.3324488401412964,-0.7930551767349243,-0.011759147047996521
1760966906079392000,8.83639208984375,-1.6623157262802124,-1.4992148876190186,-0.009315688163042068
1760966906089080000,8.846080078125,-1.8480186462402344,-2.132070779800415,-0.48212501406669617
1760966906098768400,8.855768310546875,-1.7331761121749878,-2.383747100830078,-1.3532181978225708
1760966906108456400,8.86545654296875,-1.3605486154556274,-2.047771453857422,-2.315941095352173
1760966906118144800,8.875144775390625,-0.910952091217041,-1.2133301496505737,-2.9097015857696533
1760966906127832800,8.884832763671875,-0.585972011089325,-0.4692968726158142,-2.832732677459717
1760966906137521200,8.894521240234376,-0.4601338803768158,-0.33490660786628723,-2.118021011352539
1760966906147209200,8.904209228515626,-0.35995206236839294,-0.725860059261322,-0.9879210591316223
1760966906156897500,8.9138974609375,-0.18402300775051117,-1.2597558498382568,0.2484692484140396
1760966906166585600,8.923585693359374,-0.052076224237680435,-1.8083124160766602,1.152549147605896
1760966906176273700,8.933273681640625,-0.049632761627435684,-2.243248224258423,1.559385061264038
1760966906185962000,8.9429619140625,-0.16325360536575317,-2.347095251083374,1.5361721515655518
1760966906195650000,8.952650146484375,-0.3819431960582733,-1.956141710281372,1.1366666555404663
1760966906205338400,8.96233837890625,-0.6971494555473328,-1.1351394653320312,0.47204574942588806
1760966906215026400,8.9720263671875,-1.0172425508499146,-0.19074252247810364,-0.2707658112049103
1760966906224714500,8.981714599609376,-1.2640318870544434,0.5752819180488586,-0.8865175247192383
1760966906234402800,8.99140283203125,-1.4253002405166626,1.0566433668136597,-1.2579232454299927
1760966906244091000,9.0010908203125,-1.4607304334640503,1.2215768098831177,-1.3348922729492188
1760966906253779200,9.010779296875,-1.3617702722549438,0.9845613241195679,-1.1455241441726685
1760966906263467300,9.02046728515625,-1.1687370538711548,0.434783011674881,-0.7961094975471497
1760966906273155600,9.030155517578125,-0.9500474333763123,-0.15775582194328308,-0.4234820008277893
1760966906282843600,9.03984375,-0.7496837973594666,-0.5926915407180786,-0.141262486577034
1760966906292532000,9.049531982421875,-0.5664243698120117,-0.7576250433921814,-0.011759147047996521
1760966906302220000,9.059219970703126,-0.40149086713790894,-0.6366738080978394,-0.02153298258781433
1760966906311908000,9.068908203125,-0.28176137804985046,-0.3312414288520813,-0.14370593428611755
1760966906321596400,9.078596435546874,-0.1974620372056961,0.03405570983886719,-0.3269653618335724
1760966906331284500,9.088284423828124,-0.0899498388171196,0.35414886474609375,-0.47235119342803955
1760966906340972800,9.097972900390625,0.03588830679655075,0.5838339924812317,-0.512668251991272
1760966906350660900,9.107660888671875,0.15806126594543457,0.7023417949676514,-0.44669488072395325
1760966906360349200,9.11734912109375,0.291229784488678,0.7279980778694153,-0.29397866129875183
1760966906370037200,9.127037353515625,0.4744892120361328,0.6473639607429504,-0.10705405473709106
1760966906379725300,9.136725341796875,0.6553052067756653,0.5154171586036682,0.08353576064109802
1760966906389413600,9.14641357421875,0.790917158126831,0.523969292640686,0.3168860971927643
1760966906399102000,9.15610205078125,0.8874338269233704,0.6534726023674011,0.5404626131057739
1760966906408790000,9.1657900390625,0.9045380353927612,0.6595812439918518,0.586888313293457
1760966906418478000,9.17547802734375,0.8568905591964722,0.351705402135849,0.32910341024398804
1760966906428166400,9.18516650390625,0.7921388745307922,-0.03191768378019333,-0.18035782873630524
1760966906437854500,9.1948544921875,0.7127264738082886,0.053603384643793106,-0.6861538887023926
1760966906447542800,9.204542724609375,0.6430879235267639,0.6351466774940491,-0.9195042252540588
1760966906457230800,9.21423095703125,0.6174315810203552,1.4231622219085693,-0.6519454121589661
1760966906466919200,9.223919189453126,0.5624537467956543,1.8324415683746338,0.005345067009329796
1760966906476607200,9.233607177734376,0.5062541961669922,1.6833906173706055,0.6149880886077881
1760966906486295600,9.243295654296874,0.5942187309265137,1.2472331523895264,0.9436333775520325
1760966906495983600,9.252983642578124,0.7652608752250671,0.763428270816803,0.9949460029602051
1760966906505672000,9.262671875,0.9253074526786804,0.36392268538475037,0.8752164840698242
1760966906515360000,9.272360107421875,0.9900590777397156,0.12324196845293045,0.7493783831596375
1760966906525048300,9.28204833984375,0.9961677193641663,0.14034618437290192,0.7176133990287781
1760966906534736400,9.291736328125,1.00594162940979,0.351705402135849,0.7334958910942078
1760966906544424700,9.3014248046875,1.0364848375320435,0.5850557684898376,0.7225003242492676
1760966906554112800,9.31111279296875,1.106123447418213,0.7206677198410034,0.6821832656860352
1760966906563800800,9.32080078125,1.2148573398590088,0.7316632866859436,0.6357575058937073
1760966906573489200,9.3304892578125,1.289382815361023,0.6094903349876404,0.5820014476776123
1760966906583177200,9.34017724609375,1.2466223239898682,0.39446592330932617,0.5221366882324219
1760966906592865500,9.349865478515625,1.0890191793441772,0.1928805559873581,0.45249807834625244
1760966906602553600,9.3595537109375,0.8715513348579407,0.08048143237829208,0.36942046880722046
1760966906612242000,9.369241943359375,0.6467530727386475,0.03283398225903511,0.2582430839538574
1760966906621930000,9.378929931640625,0.4488328993320465,0.03283398225903511,0.11896591633558273
1760966906631618300,9.388618408203126,0.3156643807888031,0.08903354406356812,-0.016646064817905426
1760966906641306400,9.398306396484376,0.26190826296806335,0.1818849891424179,-0.08628465235233307
1760966906650994700,9.40799462890625,0.23136503994464874,0.2124282270669937,-0.0435241162776947
1760966906660682800,9.417682861328124,0.15928299725055695,0.10125083476305008,0.09819651395082474
1760966906670371000,9.42737109375,0.054214250296354294,-0.13209950923919678,0.2948949635028839
1760966906680059100,9.43705908203125,-0.09728021919727325,-0.4436405599117279,0.46227192878723145
1760966906689747500,9.44674755859375,-0.2952004075050354,-0.7478511929512024,0.5148062705993652
1760966906699435500,9.456435546875,-0.47357290983200073,-0.9592103958129883,0.43050694465637207
1760966906709123800,9.466123779296876,-0.5774199366569519,-1.023962140083313,0.25579962134361267
1760966906718812000,9.47581201171875,-0.5884155035018921,-0.9897536635398865,0.08842267841100693
1760966906728500200,9.485500244140624,-0.5273290276527405,-0.9188933372497559,0.004123337101191282
1760966906738188300,9.495188232421874,-0.4271472096443176,-0.7429642677307129,0.031001387163996696
1760966906747876600,9.504876708984375,-0.35384342074394226,-0.34834563732147217,0.21914774179458618
1760966906757564700,9.514564697265625,-0.4405862092971802,-0.058795735239982605,0.39507678151130676
1760966906767253000,9.5242529296875,-0.8144354820251465,-0.378888875246048,0.35475972294807434
1760966906776941000,9.533941162109375,-1.2457059621810913,-1.1840087175369263,0.03222311660647392
1760966906786629400,9.54362939453125,-1.3165663480758667,-1.7374521493911743,-0.623845636844635
1760966906796317400,9.5533173828125,-1.0038034915924072,-1.6641483306884766,-1.5095995664596558
1760966906806005800,9.563005859375,-0.5737547278404236,-1.2438733577728271,-2.232863426208496
1760966906815693800,9.57269384765625,-0.2854265570640564,-0.9616538882255554,-2.453996419906616
1760966906825382100,9.582382080078125,-0.22434009611606598,-0.8333722949028015,-2.033721685409546
1760966906835070200,9.5920703125,-0.2756527364253998,-0.7344121932983398,-1.0331250429153442
1760966906844758500,9.601758544921875,-0.3404043912887573,-0.7832813858985901,0.18127411603927612
1760966906854446600,9.611446533203125,-0.4430296719074249,-1.023962140083313,1.1354448795318604
1760966906864135000,9.621135009765625,-0.541989803314209,-1.2292126417160034,1.5752675533294678
1760966906873823000,9.630822998046876,-0.6275108456611633,-1.3147337436676025,1.5569416284561157
1760966906883511000,9.640510986328126,-0.7228057384490967,-1.2927426099777222,1.1892009973526
1760966906893199400,9.650199462890624,-0.8217658400535583,-1.170569658279419,0.6003273725509644
1760966906902887700,9.6598876953125,-0.9036217331886292,-0.9726494550704956,0.005345067009329796
1760966906912575700,9.66957568359375,-0.9647082090377808,-0.7783944606781006,-0.47235119342803955
1760966906922263800,9.679263916015625,-1.0270164012908936,-0.5926915407180786,-0.8022181987762451
1760966906931952000,9.6889521484375,-1.0709986686706543,-0.38988444209098816,-0.9903645515441895
1760966906941640400,9.698640380859375,-1.0807725191116333,-0.20173808932304382,-1.0746638774871826
1760966906951328500,9.70832861328125,-1.0453423261642456,-0.07345648854970932,-1.0331250429153442
1760966906961016600,9.7180166015625,-0.9549343585968018,-0.01359174121171236,-0.8584177494049072
1760966906970705000,9.727704833984374,-0.8242093324661255,-0.0038179049734026194,-0.6201804876327515
1760966906980393200,9.737393310546874,-0.6873756051063538,-0.04169152304530144,-0.4271472096443176
1760966906990081300,9.747081298828125,-0.5285507440567017,-0.1357647031545639,-0.32330018281936646
1760966906999769300,9.756769287109375,-0.3318522870540619,-0.23716825246810913,-0.29275694489479065
1760966907009457700,9.766457763671875,-0.09850194305181503,-0.2909243404865265,-0.2903134822845459
1760966907019145700,9.776145751953125,0.14340050518512726,-0.2542724609375,-0.25243985652923584
1760966907028834000,9.785833984375,0.3633118271827698,-0.1406516134738922,-0.12293653935194016
1760966907067586800,9.8245869140625,1.0963495969772339,0.5813905596733093,1.034041404724121
1760966907077275000,9.83427490234375,1.133001446723938,0.6192641854286194,1.2380702495574951
1760966907086963200,9.843963134765625,1.0963495969772339,0.4909825623035431,1.310152292251587
1760966907096651300,9.8536513671875,1.0706932544708252,0.12202023714780807,1.162322998046875
1760966907106339600,9.863339599609375,1.0010546445846558,-0.4192059636116028,0.744491457939148
1760966907116028000,9.87302783203125,0.8239038586616516,-0.7392991185188293,0.12873975932598114
1760966907125716000,9.882716064453126,0.5514581799507141,-0.233503058552742,-0.5016726851463318
1760966907135404000,9.892404052734374,0.2790125012397766,0.9870047569274902,-0.9366084337234497
1760966907145092400,9.90209228515625,0.11652245372533798,2.3064727783203125,-0.9488257169723511
1760966907154780400,9.911780517578125,0.10919208079576492,3.03706693649292,-0.5749764442443848
1760966907164468700,9.92146875,0.18616104125976562,2.934441566467285,-0.004428769461810589
1760966907174156800,9.93115673828125,0.3510945439338684,2.16841721534729,0.6296488642692566
1760966907183845000,9.94084521484375,0.5795579552650452,1.1751511096954346,1.0914626121520996
1760966907193533200,9.950533203125,0.8055779337882996,0.47265663743019104,1.3064870834350586
1760966907203221500,9.960221435546876,1.0010546445846558,0.18555018305778503,1.3822343349456787
1760966907212909600,9.96990966796875,1.134223222732544,0.3016144931316376,1.404225468635559
1760966907222598000,9.979597900390624,1.1757619380950928,0.7683151960372925,1.4176644086837769
1760966907232286000,9.989285888671875,1.1476621627807617,1.2472331523895264,1.3895646333694458
1760966907241974300,9.998974365234375,1.0975712537765503,1.547778606414795,1.3113739490509033
1760966907251662300,10.008662353515625,1.0413717031478882,1.6406301259994507,1.1965314149856567
1760966907261350700,10.0183505859375,0.9546289443969727,1.4830269813537598,1.0560325384140015
1760966907271038700,10.028038818359375,0.8348994255065918,1.0908517837524414,0.9253074526786804
1760966907280727000,10.03772705078125,0.7310523986816406,0.6278162598609924,0.7738129496574402
1760966907290415000,10.0474150390625,0.6772963404655457,0.3016144931316376,0.5282453298568726
1760966907300103400,10.057103515625,0.661413848400116,0.17333288490772247,0.1824958473443985
1760966907309791500,10.06679150390625,0.6443096399307251,0.20143266022205353,-0.19624030590057373
1760966907319479800,10.076479736328125,0.6198750138282776,0.3174969553947449,-0.4650208055973053
1760966907329168000,10.08616796875,0.578336238861084,0.3724747896194458,-0.5053378939628601
1760966907338856200,10.095856201171875,0.5380191802978516,0.2539670467376709,-0.30375251173973083
1760966907348544300,10.105544189453125,0.5148062705993652,-0.01359174121171236,0.02977965772151947
1760966907358232600,10.115232666015626,0.4280634820461273,-0.36422812938690186,0.3559814393520355
1760966907367920600,10.124920654296876,0.21426081657409668,-0.6855430006980896,0.5917752385139465
1760966907377609000,10.13460888671875,-0.07773254066705704,-0.8810197114944458,0.616209864616394
1760966907387297000,10.144297119140624,-0.39538222551345825,-0.9286671876907349,0.3620901107788086
1760966907396985300,10.1539853515625,-0.7203623056411743,-0.7869465351104736,-0.0899498388171196
1760966907406673400,10.16367333984375,-1.0209077596664429,-0.4436405599117279,-0.5468766689300537
1760966907416361700,10.17336181640625,-1.242040753364563,-0.05635227635502815,-0.8046616315841675
1760966907426049800,10.1830498046875,-1.3495529890060425,0.33460119366645813,-0.6849321126937866
1760966907435738000,10.192738037109375,-1.4106395244598389,0.6082686185836792,-0.19501857459545135
1760966907445426200,10.20242626953125,-1.5059343576431274,0.3272708058357239,0.3217730224132538
1760966907455114500,10.212114501953126,-1.6183334589004517,-0.5083922147750854,0.42684176564216614
1760966907464802600,10.221802490234374,-1.6158900260925293,-1.315955400466919,-0.08384118974208832
1760966907474490600,10.23149072265625,-1.4069743156433105,-1.62505304813385,-1.0282381772994995
1760966907484179000,10.241178955078125,-1.0538945198059082,-1.4332414865493774,-2.0080652236938477
1760966907493867300,10.2508671875,-0.7057015299797058,-1.014188289642334,-2.5663957595825195
1760966907503555300,10.260555419921875,-0.42592546343803406,-0.7270817756652832,-2.5358524322509766
1760966907513243400,10.270243408203125,-0.2328922003507614,-0.5572614073753357,-2.0019567012786865
1760966907522931700,10.279931640625,-0.15470150113105774,-0.5670352578163147,-1.1100940704345703
1760966907532620000,10.2896201171875,-0.14492766559123993,-0.8516982197761536,-0.15958842635154724
1760966907542308000,10.29930810546875,-0.1974620372056961,-1.2866339683532715,0.49892380833625793
1760966907551996200,10.30899609375,-0.29764387011528015,-1.58717942237854,0.782365083694458
1760966907561684500,10.3186845703125,-0.439364492893219,-1.6238312721252441,0.7237220406532288
1760966907571372800,10.328372802734375,-0.6116283535957336,-1.3807071447372437,0.40607234835624695
1760966907581060900,10.338060791015625,-0.7570141553878784,-0.984866738319397,-0.026419902220368385
1760966907590749000,10.3477490234375,-0.847422182559967,-0.5731438994407654,-0.43569931387901306
1760966907600437200,10.357437255859375,-0.9133955836296082,-0.2176205813884735,-0.7533490061759949
1760966907610125300,10.367125244140626,-0.9622647166252136,0.07315105944871902,-0.9573778510093689
1760966907619813600,10.376813720703124,-0.9634864926338196,0.3016144931316376,-1.0209077596664429
1760966907629501700,10.386501708984374,-0.9378301501274109,0.3871355652809143,-0.9366084337234497
1760966907639190000,10.39618994140625,-0.9133955836296082,0.2539670467376709,-0.754570722579956
1760966907648878000,10.405878173828125,-0.8791871070861816,-0.030695954337716103,-0.5456549525260925
1760966907658566400,10.41556640625,-0.8156571984291077,-0.3116937577724457,-0.36972591280937195
1760966907668254500,10.42525439453125,-0.7130318880081177,-0.5010618567466736,-0.2536616027355194
1760966907677942800,10.43494287109375,-0.5847502946853638,-0.5328267812728882,-0.19990549981594086
1760966907687630800,10.444630859375,-0.471129447221756,-0.3678933084011078,-0.20723587274551392
1760966907697319200,10.454319091796876,-0.3917170464992523,0.010842849500477314,-0.18646647036075592
1760966907707007200,10.46400732421875,-0.27809619903564453,0.48731738328933716,-0.06307178735733032
1760966907716695600,10.473695556640624,-0.141262486577034,0.8770490884780884,0.15317434072494507
1760966907726383600,10.483383544921875,0.03222311660647392,1.1152863502502441,0.4243983030319214
1760966907736072000,10.493072021484375,0.25579962134361267,1.1824815273284912,0.6821832656860352
1760966907745760000,10.502760009765625,0.4757109582424164,1.126281976699829,0.8984293937683105
1760966907755448300,10.5124482421875,0.679739773273468,1.0138828754425049,1.07558012008667
1760966907765136400,10.522136474609376,0.8336777091026306,0.9112575054168701,1.2539526224136353
1760966907774824700,10.53182470703125,0.9240856766700745,0.7304415702819824,1.4420989751815796
1760966907784512800,10.5415126953125,0.928972601890564,0.38591381907463074,1.5373939275741577
1760966907794201000,10.551201171875,0.8666644096374512,0.0487164668738842,1.4005602598190308
1760966907803889400,10.560889404296875,0.7518218159675598,0.05971203371882439,1.0096067190170288
1760966907813577500,10.570577392578125,0.5795579552650452,0.8489493131637573,0.5600103139877319
1760966907823265500,10.580265625,0.39996370673179626,2.118326425552368,0.32910341024398804
1760966907832953900,10.589953857421875,0.2887863218784332,3.0615015029907227,0.3816377818584442
1760966907842642200,10.59964208984375,0.33276858925819397,3.314399480819702,0.5441278219223022
1760966907852330200,10.609330322265626,0.4598284661769867,2.9662065505981445,0.7139481902122498
1760966907862018600,10.6190185546875,0.6870701313018799,2.229503631591797,0.8593340516090393
1760966907871706600,10.62870654296875,1.0034980773925781,1.457370638847351,1.0523673295974731
1760966907881394700,10.638394775390625,1.3248130083084106,0.8709404468536377,1.3687952756881714
1760966907891083000,10.6480830078125,1.5642719268798828,0.5056433081626892,1.74508798122406
1760966907900771300,10.657771240234375,1.588706612586975,0.4897608458995819,2.037081241607666
1760966907910459400,10.66745947265625,1.484859585762024,0.6827940940856934,2.1274893283843994
1760966907920147700,10.677147705078125,1.3773473501205444,0.8403972387313843,1.9540036916732788
1760966907929835800,10.686835693359376,1.345582365989685,0.8904881477355957,1.5202897787094116
1760966907939524000,10.696524169921876,1.354134440422058,0.8232930302619934,0.966846227645874
1760966907949212200,10.706212158203124,1.2832741737365723,0.6436987519264221,0.4903717041015625
1760966907958900500,10.715900390625,1.11345374584198,0.4396699368953705,0.1715002804994583
1760966907968588500,10.725588623046875,0.9008728265762329,0.24174973368644714,-0.045967575162649155
1760966907978276900,10.73527685546875,0.689513623714447,0.07803797721862793,-0.23533566296100616
1760966907987965000,10.74496484375,0.5111411213874817,-0.09300415962934494,-0.4088212549686432
1760966907997653200,10.7546533203125,0.38530296087265015,-0.19562944769859314,-0.480903297662735
1760966908007341300,10.76434130859375,0.2887863218784332,-0.18585561215877533,-0.36361727118492126
1760966908017029600,10.774029541015626,0.23014330863952637,-0.20906847715377808,-0.07895427197217941
1760966908026717700,10.7837177734375,0.20937390625476837,-0.3666715919971466,0.2533561587333679
1760966908036406000,10.793406005859374,0.1922696828842163,-0.6501128673553467,0.5111411213874817
1760966908046094000,10.803093994140625,0.1617264449596405,-0.9384410381317139,0.6308705806732178
1760966908055782400,10.812782470703125,0.11896591633558273,-1.1461350917816162,0.5612320303916931
1760966908065470700,10.822470703125,0.03588830679655075,-1.2243257761001587,0.28267768025398254
1760966908075158800,10.83215869140625,-0.08384118974208832,-1.1461350917816162,-0.0899498388171196
1760966908084847000,10.84184716796875,-0.2231183648109436,-1.004414439201355,-0.41615164279937744
1760966908094535200,10.85153515625,-0.3917170464992523,-0.8504765033721924,-0.633619487285614
1760966908104223500,10.861223388671876,-0.5823068618774414,-0.7478511929512024,-0.7570141553878784
1760966908113911600,10.87091162109375,-0.7948877811431885,-0.70753413438797,-0.7814487814903259
1760966908123600000,10.880599853515625,-1.0160208940505981,-0.6268999576568604,-0.6470585465431213
1760966908133288000,10.890287841796875,-1.2493711709976196,-0.5523744821548462,-0.3428478538990021
1760966908142976300,10.899976318359375,-1.5059343576431274,-0.6696605086326599,-0.09361502528190613
1760966908152664300,10.909664306640625,-1.7209588289260864,-0.949436604976654,-0.20601414144039154
1760966908162352600,10.9193525390625,-1.78937566280365,-1.2536472082138062,-0.9146173000335693
1760966908172040700,10.929040771484376,-1.6623157262802124,-1.2841905355453491,-2.0862560272216797
1760966908181729000,10.93872900390625,-1.215162754058838,-0.9225585460662842,-3.307985544204712
1760966908191417000,10.9484169921875,-0.5676460862159729,-0.46685341000556946,-4.119214057922363
1760966908201105400,10.95810546875,-0.09850194305181503,-0.44608399271965027,-4.210843563079834
1760966908210793700,10.967793701171875,0.13851359486579895,-0.7099775671958923,-3.498575210571289
1760966908220481800,10.977481689453125,0.2533561587333679,-0.9628756046295166,-2.131459951400757
1760966908230170000,10.987170166015625,0.3119991719722748,-1.2377647161483765,-0.6079631447792053
1760966908239858200,10.996858154296875,0.24724751710891724,-1.559079647064209,0.5416843295097351
1760966908249546500,11.00654638671875,0.10186170041561127,-1.791208267211914,1.1452187299728394
1760966908259234600,11.016234619140626,-0.016646064817905426,-1.791208267211914,1.3016000986099243
1760966908268923000,11.0259228515625,-0.1461493968963623,-1.6360485553741455,1.1501057147979736
1760966908278611000,11.03561083984375,-0.3318522870540619,-1.4234676361083984,0.8092431426048279
1760966908288299300,11.04529931640625,-0.5187768936157227,-1.1155917644500732,0.3510945439338684
1760966908297987600,11.054987548828125,-0.6641627550125122,-0.6708822250366211,-0.15225805342197418
1760966908307675600,11.064675537109375,-0.8058833479881287,-0.17974695563316345,-0.6495019793510437
1760966908317364000,11.074364013671875,-0.9634864926338196,0.3040579557418823,-1.057559609413147
1760966908327052000,11.084052001953125,-1.114980936050415,0.6925679445266724,-1.3129011392593384
1760966908336740400,11.093740234375,-1.1907281875610352,0.8868229389190674,-1.3923135995864868
1760966908346428400,11.103428466796874,-1.1907281875610352,0.8037453293800354,-1.3361139297485352
1760966908356116700,11.11311669921875,-1.0893245935440063,0.6302597522735596,-1.1027636528015137
1760966908365804800,11.1228046875,-0.8767436742782593,0.4995346665382385,-0.7118101716041565
1760966908375493000,11.1324931640625,-0.585972011089325,0.29672756791114807,-0.2707658112049103
1760966908385181400,11.142181396484375,-0.25243985652923584,0.0792597085237503,0.16050471365451813
1760966908394869500,11.151869384765625,0.054214250296354294,-0.07712167501449585,0.5429060459136963
1760966908404557800,11.161557861328125,0.291229784488678,-0.10644318908452988,0.8495602011680603
1760966908414246000,11.171245849609376,0.443945974111557,0.053603384643793106,1.0425934791564941
1760966908423934200,11.180934326171876,0.5367974042892456,0.29306238889694214,1.0487021207809448
1760966908433622300,11.190622314453124,0.6345357894897461,0.6375901103019714,0.8788816928863525
1760966908443310600,11.200310546875,0.7982475757598877,1.1299470663070679,0.669965922832489
1760966908452999000,11.2099990234375,1.0267109870910645,1.5404483079910278,0.5209149122238159
1760966908462687000,11.21968701171875,1.2234094142913818,1.760359525680542,0.46227192878723145
1760966908472375300,11.229375244140625,1.310152292251587,1.6894992589950562,0.6003273725509644
1760966908482063400,11.2390634765625,1.251509189605713,1.1531599760055542,0.9118683934211731
1760966908491751700,11.248751708984376,1.0987930297851562,0.3761399984359741,1.179427146911621
1760966908501439700,11.258439697265626,0.8874338269233704,-0.0001527161948615685,1.2869393825531006
1760966908511128000,11.268128173828124,0.616209864616394,0.4286743700504303,1.3211477994918823
1760966908520816400,11.27781640625,0.32910341024398804,1.42927086353302,1.3858994245529175
1760966908530504400,11.28750439453125,0.0896444097161293,2.4567453861236572,1.4799726009368896
1760966908540192800,11.29719287109375,-0.004428769461810589,2.9552111625671387,1.4689770936965942
1760966908549880800,11.306880859375,0.028557928279042244,2.8562510013580322,1.279608964920044
1760966908559569200,11.316569091796875,0.15561780333518982,2.3516767024993896,0.9094249606132507
1760966908569257200,11.32625732421875,0.38408124446868896,1.7970114946365356,0.5233584046363831
1760966908578945500,11.335945556640626,0.6406444311141968,1.439044713973999,0.32788166403770447
1760966908588633900,11.3456337890625,0.8923207521438599,1.177594542503357,0.3523162603378296
1760966908598322000,11.355322021484374,1.0987930297851562,1.0615302324295044,0.5429060459136963
1760966908608010200,11.36501025390625,1.2356266975402832,1.0102176666259766,0.7689260244369507
1760966908617698300,11.3746982421875,1.3406955003738403,0.9088140726089478,0.9265291690826416
1760966908627386600,11.38438671875,1.4530946016311646,0.7841976881027222,1.0034980773925781
1760966908637074700,11.39407470703125,1.5435025691986084,0.6155989766120911,1.0071632862091064
1760966908646763000,11.403762939453125,1.530063509941101,0.393244206905365,0.9729548692703247
1760966908656451300,11.413451416015626,1.3700169324874878,0.1415679156780243,0.9020945429801941
1760966908666139400,11.423139404296874,1.106123447418213,-0.08078686892986298,0.7469348907470703
1760966908675827700,11.43282763671875,0.8324559926986694,-0.22739441692829132,0.46838057041168213
1760966908685516000,11.44251611328125,0.6088794469833374,-0.305585116147995,0.07864884287118912
1760966908695204000,11.4522041015625,0.4586067199707031,-0.35811948776245117,-0.3513999581336975
1760966908704892400,11.461892333984375,0.37919431924819946,-0.41676250100135803,-0.6995928883552551
1760966908714580500,11.47158056640625,0.3572031855583191,-0.4448622763156891,-0.8706350326538086
1760966908724268800,11.481268798828125,0.3975202441215515,-0.5206094980239868,-0.8681915402412415
1760966908733957000,11.49095703125,0.4378373324871063,-0.6501128673553467,-0.7130318880081177
1760966908743645200,11.500645263671874,0.3816377818584442,-0.892015278339386,-0.4540252387523651
1760966908753333500,11.51033349609375,0.18860450387001038,-1.1754565238952637,-0.1815795600414276
1760966908763021600,11.520021484375,-0.12782345712184906,-1.3232858180999756,-0.0386371985077858
1760966908772710000,11.5297099609375,-0.4650208055973053,-1.3293944597244263,-0.14248420298099518
1760966908782398000,11.53939794921875,-0.6959276795387268,-1.19866943359375,-0.45280352234840393
1760966908792086300,11.549086181640625,-0.8107702732086182,-0.9714277386665344,-0.8168789148330688
1760966908801774600,11.558774658203125,-0.8755219578742981,-0.6818777918815613,-1.0257946252822876
1760966908811462700,11.568462646484376,-1.0160208940505981,-0.3727802336215973,-0.9500474333763123
1760966908821151000,11.57815087890625,-1.3862049579620361,-0.11621702462434769,-0.6482802629470825
1760966908830839000,11.587839111328124,-1.90299654006958,-0.18463388085365295,-0.4332558512687683
1760966908840527400,11.59752734375,-2.2316417694091797,-0.5853611826896667,-0.6653844714164734
1760966908850215700,11.607215576171875,-2.1448988914489746,-0.8431460857391357,-1.4448479413986206
1760966908859903700,11.61690380859375,-1.7588324546813965,-0.5963567495346069,-2.413679361343384
1760966908869592000,11.626592041015625,-1.2738057374954224,-0.11133010685443878,-3.047757148742676
1760966908879280400,11.6362802734375,-0.8865175247192383,-0.0539088174700737,-3.0892958641052246
1760966908888968400,11.645968505859376,-0.6885973215103149,-0.5120574235916138,-2.582278251647949
1760966908898656800,11.65565673828125,-0.4955640435218811,-0.9677625298500061,-1.6867504119873047
1760966908908344800,11.6653447265625,-0.23044873774051666,-1.2279908657073975,-0.6287325620651245
1760966908918033200,11.675033203125,-0.0007635809597559273,-1.5065453052520752,0.2790125012397766
1760966908927721500,11.684721435546875,0.09941824525594711,-1.8608468770980835,0.7652608752250671
1760966908937409500,11.694409423828125,0.10308343172073364,-2.0355541706085205,0.8776599764823914
1760966908947097900,11.704097900390625,0.034666575491428375,-1.918268084526062,0.7053961157798767
1760966908956786000,11.713785888671875,-0.07406735420227051,-1.5920662879943848,0.33399030566215515
1760966908966474200,11.72347412109375,-0.22556181252002716,-1.1754565238952637,-0.11804962158203125
1760966908976162600,11.73316259765625,-0.43203410506248474,-0.7221949100494385,-0.541989803314209
1760966908985850600,11.7428505859375,-0.6421716213226318,-0.2530507445335388,-0.8620828986167908
1760966908995539000,11.7525390625,-0.7961094975471497,0.14523309469223022,-1.0245729684829712
1760966909005227000,11.76222705078125,-0.88285231590271,0.37491825222969055,-0.9952514171600342
1760966909014915300,11.771915283203125,-0.9036217331886292,0.3529271185398102,-0.7692314982414246
1760966909024603600,11.781603759765625,-0.8547525405883789,0.07559451460838318,-0.3990474045276642
1760966909034291700,11.791291748046875,-0.7386882305145264,-0.32879796624183655,-0.055741410702466965
1760966909043980000,11.80097998046875,-0.5933024287223816,-0.5890263915061951,0.08597921580076218
1760966909053668400,11.81066845703125,-0.4344775676727295,-0.5609265565872192,0.022449281066656113
1760966909063356400,11.8203564453125,-0.2683223485946655,-0.295811265707016,-0.12782345712184906
1760966909073044700,11.830044677734374,-0.09361502528190613,0.0902552679181099,-0.2695440948009491
1760966909082732800,11.83973291015625,0.054214250296354294,0.4909825623035431,-0.2903134822845459
1760966909092421000,11.849421142578125,0.15439607203006744,0.817184329032898,-0.14859285950660706
1760966909102109400,11.859109375,0.2851211428642273,0.9931133985519409,0.14217877388000488
1760966909111797500,11.868797607421875,0.48304131627082825,0.9943351149559021,0.5148062705993652
1760966909121485800,11.87848583984375,0.7066178321838379,0.8978185057640076,0.8446732759475708
1760966909131174100,11.888174072265626,0.8984293937683105,0.8526145219802856,1.0535889863967896
1760966909140862200,11.8978623046875,1.0548107624053955,0.9405790567398071,1.1977530717849731
1760966909150550500,11.907550537109374,1.162322998046875,0.9772309064865112,1.3504693508148193
1760966909160238600,11.917238525390625,1.161101222038269,0.7194460034370422,1.4323252439498901
1760966909169927000,11.926927001953125,1.0169371366500854,0.22953243553638458,1.3296998739242554
1760966909179615200,11.936615234375,0.7762564420700073,-0.039248060435056686,1.0022764205932617
1760966909189303300,11.94630322265625,0.4964803457260132,0.42134398221969604,0.5929969549179077
1760966909198991600,11.95599169921875,0.25091269612312317,1.4891356229782104,0.281455934047699
1760966909208680000,11.965679931640626,0.11163553595542908,2.613126754760742,0.18860450387001038
1760966909218368000,11.975367919921876,0.001679878099821508,3.1592400074005127,0.22036947309970856
1760966909228056300,11.985056396484374,-0.04474584385752678,3.012632369995117,0.20082180202007294
1760966909237744400,11.994744384765625,0.031001387163996696,2.3003640174865723,0.0896444097161293
1760966909247432700,12.0044326171875,0.24724751710891724,1.402392864227295,-0.030085090547800064
1760966909257121000,12.01412109375,0.5367974042892456,0.8184061050415039,-0.02153298258781433
1760966909266809000,12.02380908203125,0.8031344413757324,0.5545125007629395,0.1360701322555542
1760966909276497400,12.033497314453125,0.9631810188293457,0.6131555438041687,0.4243983030319214
1760966909286185500,12.043185546875,1.0389282703399658,0.8220712542533875,0.7273872494697571
1760966909295873800,12.052873779296876,1.1122320890426636,0.9625701904296875,0.9436333775520325
1760966909305562000,12.06256201171875,1.2282963991165161,0.9845613241195679,1.0474803447723389
1760966909315250200,12.072250244140625,1.345582365989685,0.8000801205635071,1.0254892110824585
1760966909324938500,12.0819384765625,1.3907864093780518,0.4396699368953705,0.9497420191764832
1760966909334626800,12.091626708984375,1.3150391578674316,0.04627300798892975,0.8825469017028809
1760966909344315000,12.10131494140625,1.15132737159729,-0.29825472831726074,0.7933606505393982
1760966909354003200,12.111003173828125,0.9534072279930115,-0.5120574235916138,0.5820014476776123
1760966909363691300,12.120691162109376,0.7579304575920105,-0.5487092733383179,0.249690979719162
1760966909373379600,12.130379638671876,0.606436014175415,-0.42653632164001465,-0.10461059212684631
1760966909383068000,12.14006787109375,0.4708240330219269,-0.21517711877822876,-0.3404043912887573
1760966909392756000,12.149755859375,0.3315468728542328,-0.08323032408952713,-0.3966039717197418
1760966909402444300,12.1594443359375,0.18005239963531494,-0.10277800261974335,-0.25243985652923584
1760966909412132400,12.16913232421875,0.002901607658714056,-0.26771149039268494,-0.004428769461810589
1760966909421820700,12.178820556640625,-0.2084576040506363,-0.5096139311790466,0.19349141418933868
1760966909431509000,12.188509033203125,-0.4137081801891327,-0.7270817756652832,0.23258677124977112
1760966909441197000,12.198197021484376,-0.5713112950325012,-0.8688024282455444,0.09819651395082474
1760966909450885400,12.207885498046876,-0.708145022392273,-0.9799798130989075,-0.12782345712184906
1760966909460573400,12.217573486328124,-0.8694133162498474,-1.1229221820831299,-0.3208567202091217
1760966909470261800,12.22726171875,-1.0355684757232666,-1.2866339683532715,-0.42959064245224
1760966909479950000,12.2369501953125,-1.1418589353561401,-1.3526073694229126,-0.4137081801891327
1760966909489638100,12.24663818359375,-1.152854561805725,-1.246316909790039,-0.24266603589057922
1760966909499326500,12.256326416015625,-1.1833977699279785,-0.9592103958129883,0.017562363296747208
1760966909509014800,12.266014892578125,-1.3947570323944092,-0.7063124179840088,0.2606865465641022
1760966909518702800,12.275702880859376,-1.7490586042404175,-0.8358157277107239,0.31932955980300903
1760966909528391200,12.28539111328125,-2.022726058959961,-1.307403326034546,-0.08872810751199722
1760966909538079200,12.295079345703124,-1.9567526578903198,-1.6421571969985962,-0.9854776263237
1760966909547767600,12.304767578125,-1.5364776849746704,-1.4784455299377441,-2.0324997901916504
1760966909557456000,12.314455810546875,-0.9048434495925903,-0.9457713961601257,-2.7337725162506104
1760966909567144000,12.32414404296875,-0.3526217043399811,-0.6940951347351074,-2.838841438293457
1760966909576832300,12.333832275390625,-0.13759729266166687,-0.8651372194290161,-2.2695152759552
1760966909586520300,12.343520263671875,-0.0691804364323616,-1.1766782999038696,-1.144302487373352
1760966909596208600,12.353208740234376,-0.05329795181751251,-1.4711151123046875,0.23014330863952637
