time,seconds_elapsed,z,y,x
1760898514365137000,0.217136962890625,-0.014966187067329884,-0.1256854236125946,0.03543015569448471
1760898514374825200,0.2268251953125,-0.022296564653515816,-0.09147699922323227,0.03909534588456154
1760898514384513300,0.23651318359375,-0.022296564653515816,-0.04260781779885292,0.046425722539424896
1760898514394201600,0.24620166015625,-0.025961752980947495,-0.005955931730568409,0.053756099194288254
1760898514403889700,0.2558896484375,-0.03695731982588768,0.007483093533664942,0.05864302068948746
1760898514413578000,0.265577880859375,-0.05039634555578232,0.005039634648710489,0.06352993845939636
1760898514423266000,0.27526611328125,-0.05528326332569122,0.036804601550102234,0.06841685622930527
1760898514432954400,0.284954345703125,-0.04428769648075104,0.08567378669977188,0.06963858753442764
1760898514442642400,0.294642333984375,-0.024740023538470268,0.0844520553946495,0.06719512492418289
1760898514452330800,0.304330810546875,-0.016187917441129684,0.012370011769235134,0.06963858753442764
1760898514462018800,0.314018798828125,-0.03329212963581085,-0.06582067906856537,0.08674279600381851
1760898514471707100,0.32370703125,-0.08093958348035812,-0.09147699922323227,0.10506874322891235
1760898514481395200,0.333395263671875,-0.15790854394435883,-0.07070759683847427,0.11239911615848541
1760898514491083500,0.34308349609375,-0.24953825771808624,-0.025503603741526604,0.10629047453403473
1760898514500771600,0.352771484375,-0.3338375985622406,0.02458730712532997,0.10018182545900345
1760898514510460000,0.3624599609375,-0.4010327160358429,0.04169152304530144,0.10140355676412582
1760898514520148000,0.37214794921875,-0.45478883385658264,0.08323032408952713,0.11972949653863907
1760898514529836300,0.381836181640625,-0.47922343015670776,0.14431680738925934,0.14782927930355072
1760898514539524400,0.3915244140625,-0.4718930423259735,0.1614210158586502,0.17592905461788177
1760898514549212700,0.401212646484375,-0.4584540128707886,0.11988221108913422,0.2052505612373352
1760898514558900700,0.410900634765625,-0.44990190863609314,0.04413498193025589,0.2370155304670334
1760898514568589000,0.420589111328125,-0.4608974754810333,-0.02672533318400383,0.25900667905807495
1760898514578277000,0.430277099609375,-0.508544921875,-0.07070759683847427,0.2626718580722809
1760898514587965400,0.43996533203125,-0.5757400393486023,-0.09636391699314117,0.2467893660068512
1760898514597653800,0.44965380859375,-0.6356047987937927,-0.0743727833032608,0.21502439677715302
1760898514607341800,0.459341796875,-0.6759218573570251,-0.02672533318400383,0.1649334877729416
1760898514617030000,0.46902978515625,-0.694247841835022,0.020922118797898293,0.10629047453403473
1760898514626718200,0.47871826171875,-0.6991347670555115,0.0539088174700737,0.05742128938436508
1760898514636406500,0.488406494140625,-0.6954695582389832,0.07101303339004517,0.03543015569448471
1760898514646094600,0.498094482421875,-0.6795870661735535,0.0795651376247406,0.043982263654470444
1760898514655783000,0.507782958984375,-0.6600393652915955,0.06123919412493706,0.07574722915887833
1760898514665471000,0.517470947265625,-0.6441569328308105,-0.005955931730568409,0.11362084746360779
1760898514675159000,0.527158935546875,-0.6343830823898315,-0.11468986421823502,0.12950333952903748
1760898514684847400,0.536847412109375,-0.6319395899772644,-0.20631958544254303,0.10384701192378998
1760898514694535700,0.54653564453125,-0.6453786492347717,-0.24297146499156952,0.04520399495959282
1760898514704223700,0.5562236328125,-0.664926290512085,-0.21487168967723846,-0.03176496922969818
1760898514713912000,0.565912109375,-0.6795870661735535,-0.12935061752796173,-0.10873392969369888
1760898514723600100,0.57560009765625,-0.6783653497695923,-0.027947064489126205,-0.1747073233127594
1760898514733288400,0.585288330078125,-0.6600393652915955,0.06001746281981468,-0.22235478460788727
1760898514742976500,0.5949765625,-0.6209440231323242,0.12721258401870728,-0.24923282861709595
1760898514752664800,0.604664794921875,-0.5635227560997009,0.13942988216876984,-0.2565632164478302
1760898514762353000,0.614352783203125,-0.4987711012363434,0.09666935354471207,-0.2467893660068512
1760898514772041200,0.624041259765625,-0.43401941657066345,0.04535670951008797,-0.2162461280822754
1760898514781729300,0.633729248046875,-0.37659814953804016,0.008704823441803455,-0.17104214429855347
1760898514791417600,0.64341748046875,-0.33505934476852417,-0.008399390615522861,-0.1282816082239151
1760898514801105700,0.653105712890625,-0.30085089802742004,-0.01695149764418602,-0.10140355676412582
1760898514810794000,0.6627939453125,-0.2715294063091278,-0.03649916872382164,-0.10506874322891235
1760898514820482000,0.67248193359375,-0.24831652641296387,-0.07070759683847427,-0.13194678723812103
1760898514830170400,0.68217041015625,-0.22876885533332825,-0.08781181275844574,-0.1698204129934311
1760898514839858400,0.6918583984375,-0.2202167510986328,-0.05604684352874756,-0.21868959069252014
1760898514849546800,0.701546630859375,-0.2409861534833908,0.029474224895238876,-0.2761108875274658
1760898514859234800,0.71123486328125,-0.2861901521682739,0.1455385386943817,-0.3176496922969818
1760898514868923100,0.720923095703125,-0.33505934476852417,0.25793763995170593,-0.3298669755458832
1760898514878611500,0.730611572265625,-0.3741546869277954,0.3361283540725708,-0.32620179653167725
1760898514888299500,0.740299560546875,-0.39736753702163696,0.33001968264579773,-0.31031930446624756
1760898514897987800,0.74998779296875,-0.4010327160358429,0.2286161482334137,-0.28588470816612244
1760898514907676000,0.759676025390625,-0.3851502537727356,0.09422589093446732,-0.2565632164478302
1760898514917364200,0.7693642578125,-0.3497200906276703,-0.015729768201708794,-0.2162461280822754
1760898514927052300,0.77905224609375,-0.29596397280693054,-0.08903354406356812,-0.1588248461484909
1760898514936740600,0.78874072265625,-0.19944734871387482,-0.27717989683151245,-0.06352993845939636
1760898514946428700,0.7984287109375,-0.0565049909055233,-0.5606211423873901,0.14538581669330597
1760898514956117000,0.808116943359375,0.09132428467273712,-0.5862774848937988,0.4276053309440613
1760898514965805000,0.81780517578125,0.21227550506591797,-0.3468184769153595,0.6365211009979248
1760898514975493400,0.827493408203125,0.23793183267116547,-0.2026543915271759,0.6817250847816467
1760898514985181400,0.837181396484375,0.19883649051189423,-0.10247256606817245,0.5962040424346924
1760898514994869800,0.846869873046875,0.14752385020256042,0.07101303339004517,0.4422661066055298
1760898515004558000,0.85655810546875,0.1182023361325264,0.2897026240825653,0.2761108875274658
1760898515014246100,0.86624609375,0.13041962683200836,0.45707955956459045,0.13683371245861053
1760898515023934500,0.8759345703125,0.21960589289665222,0.5951350331306458,0.036651886999607086
1760898515033622500,0.88562255859375,0.2562577724456787,0.5780308246612549,-0.034208428114652634
1760898515043310800,0.895310791015625,0.2257145345211029,0.45707955956459045,-0.09285144507884979
1760898515052999000,0.9049990234375,0.17073670029640198,0.33979353308677673,-0.13194678723812103
1760898515062687200,0.914687255859375,0.07299833744764328,0.3324631452560425,-0.11972949653863907
1760898515072375300,0.924375244140625,0.05955931544303894,0.2530507445335388,-0.036651886999607086
1760898515082063600,0.934063720703125,0.008246674202382565,0.04657844081521034,0.06597339361906052
1760898515091751700,0.943751708984375,-0.1798996776342392,0.264046311378479,0.16859868168830872
1760898515101440000,0.95343994140625,-0.2214384824037552,0.5926915407180786,0.2577849328517914
1760898515111128000,0.963128173828125,-0.24465134739875793,0.7942769527435303,0.31031930446624756
1760898515120816400,0.97281640625,-0.40714138746261597,0.6452259421348572,0.27366742491722107
1760898515130504700,0.982504638671875,-0.5158752799034119,0.4656316637992859,0.18325942754745483
1760898515140192800,0.99219287109375,-0.5513054728507996,0.4033234715461731,0.10629047453403473
1760898515149881000,1.001881103515625,-0.5525271892547607,0.36911505460739136,0.06475166976451874
1760898515159569200,1.011569091796875,-0.5122101306915283,0.4143190383911133,-0.046425722539424896
1760898515169257500,1.021257568359375,-0.3484983444213867,0.44608399271965027,-0.1441640853881836
1760898515178945500,1.030945556640625,-0.019853105768561363,0.33001968264579773,-0.1282816082239151
1760898515188633900,1.0406337890625,0.31123560667037964,0.1455385386943817,-0.007330377586185932
1760898515198322000,1.050322021484375,0.44440412521362305,-0.024281874299049377,0.15515965223312378
1760898515208010200,1.06001025390625,0.37232208251953125,-0.1721111536026001,0.19792018830776215
1760898515217698300,1.0696982421875,0.24281874299049377,-0.26251915097236633,0.09040798991918564
1760898515227386600,1.07938671875,0.1389717310667038,-0.23686282336711884,-0.06352993845939636
1760898515237074700,1.08907470703125,0.11087195575237274,-0.3578140437602997,-0.2516762912273407
1760898515246763000,1.098762939453125,0.17195843160152435,-0.5251910090446472,-0.4508182108402252
1760898515256451300,1.108451416015625,0.2623664140701294,-0.41157013177871704,-0.5790998339653015
1760898515266139400,1.118139404296875,0.24892739951610565,-0.38469210267066956,-0.6450732350349426
1760898515275827700,1.12782763671875,0.1340848207473755,-0.4653262495994568,-0.6609556674957275
1760898515285515800,1.137515869140625,0.003359756199643016,-0.4787652790546417,-0.7012727856636047
1760898515295204000,1.1472041015625,-0.08582650125026703,-0.4396699368953705,-0.7819069027900696
1760898515304892200,1.15689208984375,-0.18600831925868988,-0.44211336970329285,-0.8906408548355103
1760898515314580500,1.16658056640625,-0.3607156574726105,-0.45677414536476135,-0.9798271059989929
1760898515324268800,1.176268798828125,-0.5794052481651306,-0.42623090744018555,-1.0250310897827148
1760898515333956900,1.185956787109375,-0.7993165850639343,-0.37369653582572937,-1.0201442241668701
1760898515343645200,1.195645263671875,-0.9886846542358398,-0.3162752389907837,-0.9712749719619751
1760898515353333200,1.205333251953125,-1.1328487396240234,-0.25274530053138733,-0.8881973624229431
1760898515363021600,1.215021484375,-1.2318087816238403,-0.17944152653217316,-0.7916807532310486
1760898515372710000,1.2247099609375,-1.278234601020813,-0.11713331937789917,-0.6976075768470764
1760898515382398000,1.23439794921875,-1.257465124130249,-0.041386090219020844,-0.627968966960907
1760898515392086300,1.244086181640625,-1.1597267389297485,0.0539088174700737,-0.6157516837120056
1760898515401774300,1.2537744140625,-1.054658055305481,0.12110394239425659,-0.6352993845939636
1760898515411462700,1.263462646484375,-1.0192278623580933,0.16019928455352783,-0.6633991599082947
1760898515421150700,1.273150634765625,-1.0277799367904663,0.16508620977401733,-0.6902772188186646
1760898515430839000,1.282839111328125,-1.043662428855896,0.15409064292907715,-0.720820426940918
1760898515440527400,1.29252734375,-1.06443190574646,0.12843431532382965,-0.7660244107246399
1760898515450215400,1.30221533203125,-1.1035271883010864,0.04169152304530144,-0.794124186038971
1760898515459903700,1.31190380859375,-1.1695005893707275,-0.06826414167881012,-0.7880155444145203
1760898515469592000,1.321592041015625,-1.268460750579834,-0.1256854236125946,-0.7379246354103088
1760898515479280000,1.331280029296875,-1.3588687181472778,-0.0951421856880188,-0.6499601006507874
1760898515488968400,1.340968505859375,-1.4101812839508057,-0.030390523374080658,-0.5558869242668152
1760898515498656500,1.350656494140625,-1.4468332529067993,0.02825249545276165,-0.48991355299949646
1760898515508344800,1.3603447265625,-1.5030328035354614,0.05635227635502815,-0.4569268524646759
1760898515518033200,1.370033203125,-1.5775582790374756,0.08078686892986298,-0.44959646463394165
1760898515527721200,1.37972119140625,-1.666744589805603,0.16019928455352783,-0.47036588191986084
1760898515537409500,1.389409423828125,-1.7632611989974976,0.2689332067966461,-0.5143481492996216
1760898515547097900,1.399097900390625,-1.8585560321807861,0.37522369623184204,-0.5485565662384033
1760898515556786000,1.408785888671875,-1.961181402206421,0.513279139995575,-0.5424479246139526
1760898515566474200,1.41847412109375,-2.069915294647217,0.7221949100494385,-0.4862483739852905
1760898515576162600,1.42816259765625,-2.173762321472168,0.9653190970420837,-0.3787361681461334
1760898515585850600,1.4378505859375,-2.255618095397949,1.1742348670959473,-0.2309068888425827
1760898515595539000,1.4475390625,-2.2641704082489014,1.297629475593567,-0.05253437161445618
1760898515605227000,1.45722705078125,-2.137110471725464,1.3245075941085815,0.13439024984836578
1760898515614915300,1.466915283203125,-1.8939862251281738,1.3110685348510742,0.3078758418560028
1760898515624603600,1.476603759765625,-1.617875337600708,1.2841905355453491,0.46425724029541016
1760898515634292000,1.4862919921875,-1.3698642253875732,1.187673807144165,0.6157516837120056
1760898515643980000,1.49597998046875,-1.1633919477462769,1.0435097217559814,0.7476984858512878
1760898515653668400,1.50566845703125,-1.015562653541565,0.8590285778045654,0.851545512676239
1760898515663356700,1.515356689453125,-0.9227112531661987,0.697760283946991,0.9175189137458801
1760898515673044700,1.525044677734375,-0.8811724185943604,0.6061305999755859,0.9321796298027039
1760898515682733000,1.534733154296875,-0.8701768517494202,0.5792525410652161,0.8943060636520386
1760898515692421400,1.54442138671875,-0.8567378520965576,0.5242747068405151,0.813671886920929
1760898515702109400,1.554109375,-0.8164207935333252,0.42042768001556396,0.6829468011856079
1760898515711797800,1.5637978515625,-0.7541125416755676,0.3019199073314667,0.48502662777900696
1760898515721486000,1.573486083984375,-0.7370083332061768,0.15409064292907715,0.2724456787109375
1760898515731174100,1.583174072265625,-0.7846558094024658,-0.08414662629365921,0.11728604137897491
1760898515740862500,1.592862548828125,-0.8066469430923462,-0.3248273432254791,0.0513126403093338
1760898515750550800,1.60255078125,-0.767551600933075,-0.49220430850982666,0.06597339361906052
1760898515760239000,1.612239013671875,-0.6856957077980042,-0.5887209177017212,0.1490510106086731
1760898515769927200,1.62192724609375,-0.5952877402305603,-0.6217076182365417,0.25534147024154663
1760898515779615500,1.631615478515625,-0.536644697189331,-0.6168206930160522,0.3274235129356384
1760898515789303800,1.6413037109375,-0.5219839811325073,-0.6473639607429504,0.3396408259868622
1760898515798992000,1.650991943359375,-0.5354229807853699,-0.6998983025550842,0.277332603931427
1760898515808680200,1.66068017578125,-0.5720748901367188,-0.708450436592102,0.15515965223312378
1760898515818368500,1.670368408203125,-0.591622531414032,-0.6339249014854431,0.059864748269319534
1760898515828056800,1.680056884765625,-0.5561923980712891,-0.5337430834770203,0.0720820426940918
1760898515837745000,1.689744873046875,-0.467006117105484,-0.45188722014427185,0.1905898153781891
1760898515847433200,1.69943310546875,-0.3289506733417511,-0.4066832363605499,0.3738492429256439
1760898515857121500,1.70912158203125,-0.16035200655460358,-0.4176788032054901,0.5656607747077942
1760898515866809900,1.718809814453125,0.00946840364485979,-0.3993528485298157,0.6976075768470764
1760898515876498000,1.728497802734375,0.1279761642217636,-0.30772313475608826,0.7232639193534851
1760898515886186200,1.738186279296875,0.16218459606170654,-0.1928805559873581,0.637742817401886
1760898515895874600,1.74787451171875,0.129197895526886,-0.10369429737329483,0.4764745235443115
1760898515905563000,1.75756298828125,0.05100720748305321,-0.041386090219020844,0.28954991698265076
1760898515915251000,1.7672509765625,-0.029626941308379173,-0.002290742937475443,0.11484257876873016
1760898515924939300,1.776939208984375,-0.07238747924566269,-0.013286309316754341,-0.017104214057326317
1760898515934627600,1.786627685546875,-0.06505709886550903,-0.08414662629365921,-0.11728604137897491
1760898515944316000,1.79631591796875,-0.013744457624852657,-0.16966769099235535,-0.17837251722812653
1760898515954004000,1.80600390625,0.07544180005788803,-0.2075413018465042,-0.17104214429855347
1760898515963692300,1.8156923828125,0.1853974610567093,-0.18432845175266266,-0.09651663154363632
1760898515973380600,1.825380615234375,0.31123560667037964,-0.06215549260377884,0.043982263654470444
1760898515983069000,1.83506884765625,0.4358520209789276,0.19685117900371552,0.26878049969673157
1760898515992757200,1.84475732421875,0.5079340934753418,0.5096139311790466,0.5436696410179138
1760898516002445300,1.8544453125,0.4773908257484436,0.7698423266410828,0.7953459620475769
1760898516012133600,1.864133544921875,0.3698786199092865,0.9592103958129883,0.9541707634925842
1760898516021822000,1.873822021484375,0.23304490745067596,1.0789399147033691,0.9798271059989929
1760898516031510300,1.88351025390625,0.10109812021255493,1.1094831228256226,0.8686497211456299
1760898516041198600,1.893198486328125,-0.007635809946805239,1.0068578720092773,0.6487383842468262
1760898516050886700,1.90288671875,-0.0772743970155716,0.7759509682655334,0.370184063911438
1760898516060575000,1.912574951171875,-0.1029307171702385,0.4705185890197754,0.07330377399921417
1760898516070263300,1.92226318359375,-0.11636973917484283,0.14309507608413696,-0.2211330533027649
1760898516079951600,1.93195166015625,-0.15179990231990814,-0.16844595968723297,-0.4838049113750458
1760898516089639700,1.9416396484375,-0.2214384824037552,-0.39080074429512024,-0.6682860851287842
1760898516099328000,1.951327880859375,-0.3130682110786438,-0.46654796600341797,-0.7171552777290344
1760898516109016300,1.961016357421875,-0.38881543278694153,-0.37003132700920105,-0.6010909676551819
1760898516118704600,1.97070458984375,-0.40347617864608765,-0.11835505068302155,-0.3555232882499695
1760898516128393000,1.98039306640625,-0.38759371638298035,0.1516471803188324,-0.07941242307424545
1760898516138081300,1.990081298828125,-0.39858928322792053,0.3068068325519562,0.12461641430854797
1760898516147769300,1.999769287109375,-0.4621191918849945,0.3092502951622009,0.21991132199764252
1760898516157457700,2.009457763671875,-0.5403099060058594,0.20906847715377808,0.20402882993221283
1760898516167146000,2.01914599609375,-0.5684096813201904,0.08689551800489426,0.08674279600381851
1760898516176834300,2.028834228515625,-0.5256491303443909,-0.04627300798892975,-0.09651663154363632
1760898516186522600,2.038522705078125,-0.44868019223213196,-0.19165882468223572,-0.2919933497905731
1760898516196211000,2.0482109375,-0.3704894781112671,-0.3211621642112732,-0.44470956921577454
1760898516205899000,2.05789892578125,-0.31673339009284973,-0.42623090744018555,-0.5192350745201111
1760898516215587300,2.06758740234375,-0.3081812858581543,-0.48365217447280884,-0.4972439408302307
1760898516225275600,2.077275634765625,-0.34727662801742554,-0.4995346665382385,-0.3750709891319275
1760898516234964000,2.0869638671875,-0.4169152081012726,-0.5178605914115906,-0.16737695038318634
1760898516244652300,2.09665234375,-0.48533207178115845,-0.5557342171669006,0.08063415437936783
1760898516254340600,2.106340576171875,-0.5170970559120178,-0.5899426341056824,0.328645259141922
1760898516264028700,2.116028564453125,-0.4889972507953644,-0.5948295593261719,0.5571087002754211
1760898516273717000,2.125717041015625,-0.39736753702163696,-0.569173276424408,0.7525854110717773
1760898516283405300,2.1354052734375,-0.27397283911705017,-0.504421591758728,0.8955277800559998
1760898516293093600,2.14509375,-0.14813470840454102,-0.3883572816848755,0.9920443892478943
1760898516302782000,2.154781982421875,-0.03329212963581085,-0.25763222575187683,1.0580178499221802
1760898516312470300,2.16447021484375,0.06444623321294785,-0.14889828860759735,1.1044435501098633
1760898516322158600,2.17415869140625,0.13652828335762024,-0.09758564829826355,1.1215476989746094
1760898516331847000,2.183846923828125,0.1853974610567093,-0.09269873052835464,1.110552191734314
1760898516341535000,2.193534912109375,0.2208276242017746,-0.1256854236125946,1.072678565979004
1760898516351223300,2.203223388671875,0.24770566821098328,-0.17944152653217316,1.0177006721496582
1760898516360911600,2.21291162109375,0.2721402645111084,-0.24297146499156952,0.9615011811256409
1760898516370600000,2.222599853515625,0.29535311460494995,-0.3150535225868225,0.9175189137458801
1760898516380288300,2.232288330078125,0.3185659945011139,-0.4042397737503052,0.8857539296150208
1760898516389976600,2.2419765625,0.3442223072052002,-0.4970912039279938,0.8698714375495911
1760898516399665000,2.251664794921875,0.364991694688797,-0.5545125007629395,0.8759800791740417
1760898516409353200,2.261353271484375,0.37720900774002075,-0.567951500415802,0.8979712128639221
1760898516419041300,2.271041259765625,0.3845393657684326,-0.5655080676078796,0.9236275553703308
1760898516428729900,2.280729736328125,0.3894262909889221,-0.5557342171669006,0.943175196647644
1760898516438418000,2.29041796875,0.39186975359916687,-0.5325213670730591,0.9566142559051514
1760898516448106200,2.300106201171875,0.3857611119747162,-0.5031998753547668,0.9541707634925842
1760898516457794600,2.309794677734375,0.37354379892349243,-0.47265663743019104,0.9260709881782532
1760898516467483000,2.31948291015625,0.36743515729904175,-0.44577857851982117,0.8686497211456299
1760898516477171200,2.329171142578125,0.36743515729904175,-0.42745262384414673,0.7721330523490906
1760898516486859500,2.338859619140625,0.3698786199092865,-0.4079049527645111,0.6206386089324951
1760898516496547800,2.3485478515625,0.3601047992706299,-0.383470356464386,0.4202749729156494
1760898516506236200,2.358236083984375,0.33078327775001526,-0.35537058115005493,0.19303326308727264
1760898516515924500,2.367924560546875,0.28069236874580383,-0.3370446562767029,-0.02932151034474373
1760898516525612800,2.37761279296875,0.20738859474658966,-0.3223838806152344,-0.21868959069252014
1760898516535300900,2.38730078125,0.10842850059270859,-0.3052796721458435,-0.3530798554420471
1760898516544989400,2.396989501953125,-0.003970621153712273,-0.268627792596817,-0.40927940607070923
1760898516554677500,2.406677490234375,-0.12125665694475174,-0.19654574990272522,-0.3836230933666229
1760898516564365800,2.41636572265625,-0.23732095956802368,-0.0951421856880188,-0.2809978127479553
1760898516574054100,2.42605419921875,-0.3436114490032196,0.019700389355421066,-0.12461641430854797
1760898516583742500,2.435742431640625,-0.4303542375564575,0.11743875592947006,0.050090912729501724
1760898516593430800,2.4454306640625,-0.4889972507953644,0.18341214954853058,0.21502439677715302
1760898516603119000,2.455119140625,-0.508544921875,0.21395538747310638,0.3445277214050293
1760898516612807400,2.464807373046875,-0.4828886091709137,0.20418155193328857,0.4251618981361389
1760898516622495700,2.474495849609375,-0.4205803871154785,0.16019928455352783,0.45937031507492065
1760898516632184000,2.48418408203125,-0.33628106117248535,0.10399972647428513,0.45937031507492065
1760898516641872400,2.493872314453125,-0.24709481000900269,0.052687086164951324,0.43371400237083435
1760898516651560700,2.503560791015625,-0.16279546916484833,0.0038179049734026194,0.38728827238082886
1760898516661249000,2.5132490234375,-0.08460476994514465,-0.04016435891389847,0.32620179653167725
1760898516670937300,2.522937255859375,-0.011300998739898205,-0.0792597085237503,0.2528980076313019
1760898516680625700,2.532625732421875,0.0461202897131443,-0.11224640160799026,0.1747073233127594
1760898516690314000,2.54231396484375,0.07055488228797913,-0.1305723488330841,0.10140355676412582
1760898516700002300,2.552002197265625,0.05833758786320686,-0.1305723488330841,0.040317077189683914
1760898516709690600,2.561690673828125,0.016798781231045723,-0.11591159552335739,-0.002443459117785096
1760898516719379000,2.57137890625,-0.035735588520765305,-0.09636391699314117,-0.028099779039621353
1760898516729067300,2.5810673828125,-0.08338304609060287,-0.0792597085237503,-0.036651886999607086
1760898516738755600,2.590755615234375,-0.11392628401517868,-0.07315105944871902,-0.03543015569448471
1760898516748444000,2.60044384765625,-0.12492185086011887,-0.08414662629365921,-0.030543239787220955
1760898516758132200,2.61013232421875,-0.12247838824987411,-0.09269873052835464,-0.02932151034474373
1760898516767820500,2.619820556640625,-0.11026109009981155,-0.10125083476305008,-0.03543015569448471
1760898516777508900,2.6295087890625,-0.09315688163042068,-0.10735948383808136,-0.043982263654470444
1760898516787197200,2.639197265625,-0.07605266571044922,-0.10613775253295898,-0.050090912729501724
1760898516796885500,2.648885498046875,-0.05894844979047775,-0.1000291109085083,-0.04886918142437935
1760898516806573800,2.65857373046875,-0.03940077871084213,-0.08292489498853683,-0.043982263654470444
1760898516816262100,2.66826220703125,-0.022296564653515816,-0.05971203371882439,-0.03176496922969818
1760898516825950500,2.677950439453125,-0.010079269297420979,-0.02916879393160343,-0.009773836471140385
1760898516835638800,2.687638671875,-0.008857538923621178,-0.003512472379952669,0.01954767294228077
1760898516845327000,2.6973271484375,-0.012522728182375431,0.016035201027989388,0.05497783049941063
1760898516855015400,2.707015380859375,-0.018631376326084137,0.029474224895238876,0.09040798991918564
1760898516864703700,2.716703857421875,-0.023518294095993042,0.04413498193025589,0.1185077652335167
1760898516874392000,2.72639208984375,-0.025961752980947495,0.058795735239982605,0.13683371245861053
1760898516884080400,2.736080322265625,-0.02718348242342472,0.07101303339004517,0.14294235408306122
1760898516893768700,2.745768798828125,-0.025961752980947495,0.07223475724458694,0.13927717506885529
1760898516903457000,2.75545703125,-0.019853105768561363,0.049021899700164795,0.12583814561367035
1760898516913145300,2.765145263671875,-0.013744457624852657,0.019700389355421066,0.1026252806186676
1760898516922833700,2.774833740234375,-0.007635809946805239,0.0001527161948615685,0.0769689604640007
1760898516932522000,2.78452197265625,-0.003970621153712273,-0.007177661173045635,0.056199558079242706
1760898516942210300,2.794210205078125,-0.005192350596189499,-0.010842849500477314,0.046425722539424896
1760898516951898600,2.803898681640625,-0.014966187067329884,-0.009621120058000088,0.04764745384454727
1760898516971275300,2.823275146484375,-0.04673115536570549,0.019700389355421066,0.06597339361906052
1760898516980963600,2.832963623046875,-0.0565049909055233,0.03558287397027016,0.07574722915887833
1760898516990652000,2.84265185546875,-0.051618073135614395,0.04169152304530144,0.0818558782339096
1760898517000340200,2.85234033203125,-0.032070402055978775,0.039248060435056686,0.07941242307424545
1760898517010028500,2.862028564453125,-0.006414080038666725,0.036804601550102234,0.06352993845939636
1760898517019716900,2.871716796875,0.016798781231045723,0.027030766010284424,0.03176496922969818
1760898517029405200,2.8814052734375,0.03390299528837204,0.012370011769235134,-0.007330377586185932
1760898517039093500,2.891093505859375,0.04245510324835777,0.007483093533664942,-0.043982263654470444
1760898517048781800,2.90078173828125,0.044898562133312225,0.0062613640911877155,-0.07086031138896942
1760898517058470100,2.91047021484375,0.038789913058280945,0.0038179049734026194,-0.08307760953903198
1760898517068158500,2.920158447265625,0.02779434807598591,0.0001527161948615685,-0.08063415437936783
1760898517077847000,2.929846923828125,0.013133592903614044,-0.0010690133785828948,-0.06719512492418289
1760898517097223700,2.9492236328125,-0.012522728182375431,-0.003512472379952669,-0.021991131827235222
1760898517106912000,2.958912109375,-0.01740964688360691,-0.005955931730568409,-0.001221729558892548
1760898517116600300,2.968600341796875,-0.01740964688360691,-0.009621120058000088,0.004886918235570192
1760898517126288600,2.97828857421875,-0.01740964688360691,-0.01206457894295454,-0.01588248461484909
1760898517135977000,2.98797705078125,-0.010079269297420979,-0.010842849500477314,-0.05864302068948746
1760898517145665300,2.997665283203125,0.00946840364485979,-0.010842849500477314,-0.13927717506885529
1760898517155353600,3.007353515625,0.044898562133312225,-0.014508038759231567,-0.2712239623069763
1760898517165042000,3.0170419921875,0.0974329337477684,-0.010842849500477314,-0.4410443603992462
1760898517174730200,3.026730224609375,0.1695149689912796,-0.009621120058000088,-0.6157516837120056
1760898517184418600,3.03641845703125,0.24404047429561615,-0.02672533318400383,-0.7525854110717773
1760898517194107000,3.04610693359375,0.3039052188396454,-0.05849030241370201,-0.8258891701698303
1760898517203795200,3.055795166015625,0.3271180987358093,-0.09880737960338593,-0.8429933786392212
1760898517213483500,3.0654833984375,0.31001389026641846,-0.1415679156780243,-0.8124501705169678
1760898517223172000,3.075172119140625,0.25503605604171753,-0.16966769099235535,-0.7476984858512878
1760898517232860400,3.0848603515625,0.1805105358362198,-0.17944152653217316,-0.6499601006507874
1760898517242548700,3.094548828125,0.10476330667734146,-0.17577634751796722,-0.5277871489524841
1760898517252237000,3.104237060546875,0.03634645417332649,-0.16478078067302704,-0.3995055556297302
1760898517261925400,3.11392529296875,-0.01740964688360691,-0.16355904936790466,-0.2724456787109375
1760898517271613700,3.12361376953125,-0.057726722210645676,-0.16355904936790466,-0.15760311484336853
1760898517281302000,3.133302001953125,-0.0821613147854805,-0.15500694513320923,-0.056199558079242706
1760898517290990300,3.142990234375,-0.08949168771505356,-0.14278964698314667,0.028099779039621353
1760898517300678700,3.1526787109375,-0.08460476994514465,-0.13545925915241241,0.08552107214927673
1760898517310367000,3.162366943359375,-0.07605266571044922,-0.12324196845293045,0.11606431007385254
1760898517320055300,3.17205517578125,-0.07116574794054031,-0.09758564829826355,0.13072505593299866
1760898517329744000,3.181743896484375,-0.06383536756038666,-0.064598947763443,0.14294235408306122
1760898517339432200,3.19143212890625,-0.05406153202056885,-0.02916879393160343,0.1539379209280014
1760898517349120500,3.20112060546875,-0.047952886670827866,-0.0010690133785828948,0.15638138353824615
1760898517358808800,3.210808837890625,-0.04428769648075104,0.02458730712532997,0.14294235408306122
1760898517368497200,3.2204970703125,-0.03817904740571976,0.0539088174700737,0.11728604137897491
1760898517378185500,3.230185546875,-0.024740023538470268,0.0746782198548317,0.08552107214927673
1760898517387873800,3.239873779296875,-0.006414080038666725,0.07834340631961823,0.05253437161445618
1760898517397562000,3.24956201171875,0.011911863461136818,0.06490438431501389,0.020769402384757996
1760898517407250400,3.25925048828125,0.025350889191031456,0.04657844081521034,-0.006108647678047419
1760898517416938800,3.268938720703125,0.032681263983249664,0.02825249545276165,-0.024434590712189674
1760898517426627300,3.27862744140625,0.03390299528837204,0.01359174121171236,-0.026878049597144127
1760898517436315600,3.288315673828125,0.02779434807598591,0.0001527161948615685,-0.012217295356094837
1760898517446004000,3.29800390625,0.016798781231045723,-0.010842849500477314,0.01588248461484909
1760898517455692300,3.3076923828125,0.0009162971982732415,-0.013286309316754341,0.046425722539424896
1760898517465380600,3.317380615234375,-0.016187917441129684,-0.002290742937475443,0.07452550530433655
1760898517475069000,3.32706884765625,-0.029626941308379173,0.017256930470466614,0.09285144507884979
1760898517484757200,3.33675732421875,-0.035735588520765305,0.029474224895238876,0.09285144507884979
1760898517494445600,3.346445556640625,-0.03451386094093323,0.027030766010284424,0.07452550530433655
1760898517504134000,3.3561337890625,-0.028405211865901947,0.014813470654189587,0.046425722539424896
1760898517513822500,3.365822509765625,-0.019853105768561363,-0.002290742937475443,0.013439024798572063
1760898517523510800,3.3755107421875,-0.014966187067329884,-0.0206166859716177,-0.014660755172371864
1760898517533199000,3.38519921875,-0.014966187067329884,-0.037720900028944016,-0.034208428114652634
1760898517542887400,3.394887451171875,-0.018631376326084137,-0.053603384643793106,-0.04153880476951599
1760898517552575700,3.40457568359375,-0.024740023538470268,-0.06704241037368774,-0.04153880476951599
1760898517562264000,3.41426416015625,-0.029626941308379173,-0.07070759683847427,-0.034208428114652634
1760898517571952400,3.423952392578125,-0.032070402055978775,-0.06582067906856537,-0.028099779039621353
1760898517581640700,3.433640625,-0.0308486707508564,-0.06215549260377884,-0.028099779039621353
1760898517591329000,3.4433291015625,-0.028405211865901947,-0.05482511222362518,-0.026878049597144127
1760898517601017300,3.453017333984375,-0.024740023538470268,-0.041386090219020844,-0.020769402384757996
1760898517610706000,3.462705810546875,-0.019853105768561363,-0.025503603741526604,-0.014660755172371864
1760898517620394200,3.472394287109375,-0.01740964688360691,-0.015729768201708794,-0.009773836471140385
1760898517630082600,3.48208251953125,-0.013744457624852657,-0.003512472379952669,-0.003665188793092966
1760898517639771000,3.49177099609375,-0.0027488914784044027,-0.0010690133785828948,0.004886918235570192
1760898517649459200,3.501459228515625,0.00946840364485979,0.0025961752980947495,0.012217295356094837
1760898517659147500,3.5111474609375,0.016798781231045723,0.008704823441803455,0.017104214057326317
1760898517668835800,3.5208359375,0.019242240116000175,0.014813470654189587,0.024434590712189674
1760898517678524200,3.530524169921875,0.015577051788568497,0.01847865991294384,0.02932151034474373
1760898517688212500,3.54021240234375,0.007024944759905338,0.019700389355421066,0.028099779039621353
1760898517697901000,3.549901123046875,-0.0027488914784044027,0.020922118797898293,0.024434590712189674
1760898517726966000,3.578966064453125,-0.013744457624852657,0.016035201027989388,0.008552107028663158
1760898517736654300,3.588654296875,-0.012522728182375431,0.009926552884280682,0
1760898517746342700,3.5983427734375,-0.010079269297420979,0.007483093533664942,-0.009773836471140385
1760898517756031000,3.608031005859375,-0.006414080038666725,0.007483093533664942,-0.018325943499803543
1760898517765719300,3.61771923828125,-0.003970621153712273,0.0062613640911877155,-0.020769402384757996
1760898517775407900,3.627407958984375,-0.0015271619195118546,0.0025961752980947495,-0.01588248461484909
1760898517785096200,3.63709619140625,-0.0015271619195118546,-0.002290742937475443,-0.007330377586185932
1760898517794784500,3.646784423828125,-0.0027488914784044027,-0.008399390615522861,0.001221729558892548
1760898517804472800,3.656472900390625,-0.0027488914784044027,-0.004734201822429895,0.004886918235570192
1760898517814161200,3.6661611328125,-0.0027488914784044027,0.005039634648710489,0.004886918235570192
1760898517823849500,3.675849365234375,-0.005192350596189499,0.011148282326757908,0.004886918235570192
1760898517833537800,3.685537841796875,-0.010079269297420979,0.011148282326757908,0.007330377586185932
1760898517843226400,3.695226318359375,-0.014966187067329884,0.009926552884280682,0.010995565913617611
1760898517852914700,3.704914794921875,-0.02107483521103859,0.007483093533664942,0.017104214057326317
1760898517862603000,3.71460302734375,-0.02718348242342472,0.005039634648710489,0.024434590712189674
1760898517872291300,3.724291259765625,-0.032070402055978775,0.0062613640911877155,0.036651886999607086
1760898517881979600,3.733979736328125,-0.035735588520765305,0.012370011769235134,0.05497783049941063
1760898517891668000,3.74366796875,-0.032070402055978775,0.020922118797898293,0.07330377399921417
1760898517901356300,3.753356201171875,-0.024740023538470268,0.02458730712532997,0.08552107214927673
1760898517911044900,3.763044921875,-0.016187917441129684,0.02825249545276165,0.09285144507884979
1760898517920733200,3.772733154296875,-0.005192350596189499,0.03436114266514778,0.08429934084415436
1760898517930421500,3.78242138671875,0.004581485874950886,0.03191768378019333,0.05742128938436508
1760898517940109800,3.79210986328125,0.013133592903614044,0.02825249545276165,0.020769402384757996
1760898517949798100,3.801798095703125,0.016798781231045723,0.01847865991294384,-0.014660755172371864
1760898517959486500,3.811486572265625,0.016798781231045723,0.0001527161948615685,-0.04153880476951599
1760898517969174800,3.8211748046875,0.015577051788568497,-0.013286309316754341,-0.059864748269319534
1760898517978863400,3.83086328125,0.011911863461136818,-0.01695149764418602,-0.06963858753442764
1760898517988551700,3.8405517578125,0.005803215317428112,-0.010842849500477314,-0.06963858753442764
1760898517998240000,3.850239990234375,-0.000305432389723137,-0.005955931730568409,-0.06108647957444191
1760898518007928300,3.85992822265625,-0.005192350596189499,-0.004734201822429895,-0.04764745384454727
1760898518017616600,3.86961669921875,-0.006414080038666725,-0.002290742937475443,-0.02932151034474373
1760898518027305000,3.879304931640625,-0.007635809946805239,0.0001527161948615685,-0.013439024798572063
1760898518036993500,3.88899365234375,-0.008857538923621178,0.0001527161948615685,0.002443459117785096
1760898518046681900,3.898681884765625,-0.008857538923621178,-0.002290742937475443,0.012217295356094837
1760898518056370200,3.9083701171875,-0.008857538923621178,0.0001527161948615685,0.018325943499803543
1760898518066058500,3.91805859375,-0.007635809946805239,0.0025961752980947495,0.021991131827235222
1760898518075746800,3.927746826171875,-0.006414080038666725,0.005039634648710489,0.0256563201546669
1760898518085435100,3.93743505859375,-0.003970621153712273,0.0062613640911877155,0.028099779039621353
1760898518095123700,3.947123779296875,-0.0015271619195118546,0.0062613640911877155,0.02932151034474373
1760898518104812000,3.95681201171875,0.003359756199643016,0.008704823441803455,0.0256563201546669
1760898518114500400,3.966500244140625,0.00946840364485979,0.01359174121171236,0.021991131827235222
1760898518124188700,3.976188720703125,0.013133592903614044,0.01359174121171236,0.017104214057326317
1760898518133877000,3.985876953125,0.011911863461136818,0.011148282326757908,0.013439024798572063
1760898518143565300,3.9955654296875,0.007024944759905338,0.0062613640911877155,0.010995565913617611
1760898518153254000,4.00525390625,-0.0027488914784044027,0.0038179049734026194,0.009773836471140385
1760898518162942200,4.014942138671875,-0.008857538923621178,0.0013744457392022014,0.006108647678047419
1760898518172630500,4.024630615234375,-0.010079269297420979,-0.002290742937475443,0.001221729558892548
1760898518182318800,4.03431884765625,-0.011300998739898205,-0.003512472379952669,-0.001221729558892548
1760898518192007200,4.044007080078125,-0.008857538923621178,-0.005955931730568409,0.001221729558892548
1760898518201695700,4.05369580078125,-0.008857538923621178,-0.009621120058000088,0.007330377586185932
1760898518211384000,4.063384033203125,-0.007635809946805239,-0.01206457894295454,0.01588248461484909
1760898518221072400,4.073072265625,-0.008857538923621178,-0.010842849500477314,0.023212861269712448
1760898518230760700,4.0827607421875,-0.011300998739898205,-0.008399390615522861,0.0256563201546669
1760898518240449000,4.092448974609375,-0.011300998739898205,0.0013744457392022014,0.0256563201546669
1760898518250137600,4.1021376953125,-0.010079269297420979,0.009926552884280682,0.021991131827235222
1760898518259826000,4.111825927734375,-0.007635809946805239,0.016035201027989388,0.018325943499803543
1760898518269514200,4.12151416015625,-0.005192350596189499,0.019700389355421066,0.013439024798572063
1760898518279202600,4.13120263671875,-0.0015271619195118546,0.014813470654189587,0.003665188793092966
1760898518288891100,4.14089111328125,0.004581485874950886,0.0062613640911877155,-0.013439024798572063
1760898518298579500,4.150579345703125,0.010690134018659592,0.0001527161948615685,-0.03176496922969818
1760898518308267800,4.160267822265625,0.013133592903614044,-0.003512472379952669,-0.043982263654470444
1760898518317956000,4.1699560546875,0.015577051788568497,-0.008399390615522861,-0.046425722539424896
1760898518327644400,4.17964453125,0.011911863461136818,-0.01206457894295454,-0.043982263654470444
1760898518337333000,4.1893330078125,0.005803215317428112,-0.013286309316754341,-0.03787361457943916
1760898518347021300,4.199021240234375,-0.003970621153712273,-0.014508038759231567,-0.030543239787220955
1760898518356709600,4.208709716796875,-0.013744457624852657,-0.014508038759231567,-0.021991131827235222
1760898518366398000,4.21839794921875,-0.02107483521103859,-0.015729768201708794,-0.012217295356094837
1760898518376086500,4.22808642578125,-0.024740023538470268,-0.018173227086663246,-0.001221729558892548
1760898518385774800,4.23777490234375,-0.023518294095993042,-0.018173227086663246,0.008552107028663158
1760898518395463200,4.247463134765625,-0.01740964688360691,-0.01695149764418602,0.01588248461484909
1760898518405151500,4.2571513671875,-0.013744457624852657,-0.013286309316754341,0.0256563201546669
1760898518414840000,4.266840087890625,-0.011300998739898205,-0.0010690133785828948,0.03543015569448471
1760898518424528400,4.2765283203125,-0.008857538923621178,0.009926552884280682,0.03909534588456154
1760898518434216700,4.286216796875,-0.007635809946805239,0.020922118797898293,0.03909534588456154
1760898518443905000,4.295905029296875,-0.003970621153712273,0.030695954337716103,0.034208428114652634
1760898518453593600,4.305593505859375,0.0021380267571657896,0.036804601550102234,0.02932151034474373
1760898518463282000,4.315281982421875,0.010690134018659592,0.030695954337716103,0.024434590712189674
1760898518472970200,4.32497021484375,0.015577051788568497,0.019700389355421066,0.018325943499803543
1760898518482658800,4.334658935546875,0.015577051788568497,0.009926552884280682,0.012217295356094837
1760898518492347100,4.34434716796875,0.00946840364485979,0.005039634648710489,0.007330377586185932
1760898518502035500,4.354035400390625,0.0009162971982732415,0.007483093533664942,0.004886918235570192
1760898518511723800,4.363723876953125,-0.008857538923621178,0.014813470654189587,0.004886918235570192
1760898518521412400,4.373412353515625,-0.016187917441129684,0.014813470654189587,0.008552107028663158
1760898518531100700,4.3831005859375,-0.014966187067329884,0.007483093533664942,0.013439024798572063
1760898518540789000,4.3927890625,-0.012522728182375431,0.0025961752980947495,0.014660755172371864
1760898518550477600,4.4024775390625,-0.014966187067329884,0.0001527161948615685,0.01588248461484909
1760898518560166000,4.412165771484375,-0.018631376326084137,-0.0010690133785828948,0.018325943499803543
1760898518569854200,4.421854248046875,-0.019853105768561363,-0.005955931730568409,0.01588248461484909
1760898518579542800,4.431542724609375,-0.01740964688360691,-0.007177661173045635,0.009773836471140385
1760898518589231000,4.441231201171875,-0.013744457624852657,-0.0010690133785828948,0.003665188793092966
1760898518598919400,4.45091943359375,-0.008857538923621178,0.0001527161948615685,-0.001221729558892548
1760898518608608000,4.46060791015625,-0.006414080038666725,-0.0010690133785828948,-0.002443459117785096
1760898518618296300,4.47029638671875,-0.005192350596189499,0.0025961752980947495,0.001221729558892548
1760898518627984600,4.479984619140625,-0.000305432389723137,0.012370011769235134,0.006108647678047419
1760898518637673200,4.489673095703125,0.00946840364485979,0.014813470654189587,0.012217295356094837
1760898518647361500,4.499361572265625,0.019242240116000175,0.009926552884280682,0.01588248461484909
1760898518657049900,4.5090498046875,0.0204639695584774,0.008704823441803455,0.01588248461484909
1760898518666738400,4.518738525390625,0.01435532234609127,0.01359174121171236,0.013439024798572063
1760898518676426800,4.5284267578125,0.007024944759905338,0.014813470654189587,0.010995565913617611
1760898518686115000,4.538114990234375,0.0009162971982732415,0.012370011769235134,0.008552107028663158
1760898518695803600,4.5478037109375,-0.0027488914784044027,0.005039634648710489,0.002443459117785096
1760898518705492000,4.557491943359375,-0.003970621153712273,0.0013744457392022014,-0.004886918235570192
1760898518715180300,4.56718017578125,-0.0015271619195118546,-0.003512472379952669,-0.007330377586185932
1760898518724868900,4.576868896484375,0.003359756199643016,-0.004734201822429895,-0.004886918235570192
1760898518734557200,4.58655712890625,0.004581485874950886,-0.004734201822429895,0.003665188793092966
1760898518744245500,4.59624560546875,0.005803215317428112,0.0001527161948615685,0.010995565913617611
1760898518753934000,4.60593408203125,0.004581485874950886,0.0062613640911877155,0.012217295356094837
1760898518763622400,4.615622314453125,0.003359756199643016,0.008704823441803455,0.009773836471140385
1760898518773310700,4.625310791015625,0.0009162971982732415,0.0062613640911877155,0.007330377586185932
1760898518782999300,4.634999267578125,-0.003970621153712273,0.0025961752980947495,0.004886918235570192
1760898518792687600,4.6446875,-0.010079269297420979,0.0001527161948615685,-0.001221729558892548
1760898518802376200,4.654376220703125,-0.013744457624852657,-0.005955931730568409,-0.009773836471140385
1760898518812064500,4.664064453125,-0.011300998739898205,-0.010842849500477314,-0.020769402384757996
1760898518821752800,4.6737529296875,-0.005192350596189499,-0.008399390615522861,-0.028099779039621353
1760898518831441400,4.68344140625,0.0009162971982732415,-0.007177661173045635,-0.03176496922969818
1760898518841129700,4.693129638671875,0.0009162971982732415,-0.008399390615522861,-0.026878049597144127
1760898518850818000,4.702818115234375,-0.0027488914784044027,-0.008399390615522861,-0.014660755172371864
1760898518860506600,4.712506591796875,-0.005192350596189499,-0.002290742937475443,0.001221729558892548
1760898518870195000,4.72219482421875,-0.005192350596189499,0.005039634648710489,0.017104214057326317
1760898518879883500,4.731883544921875,-0.003970621153712273,0.012370011769235134,0.02932151034474373
1760898518889571800,4.74157177734375,-0.003970621153712273,0.017256930470466614,0.034208428114652634
1760898518899260200,4.75126025390625,-0.005192350596189499,0.019700389355421066,0.03298669680953026
1760898518908948700,4.76094873046875,-0.005192350596189499,0.019700389355421066,0.02932151034474373
1760898518918637000,4.770636962890625,-0.005192350596189499,0.019700389355421066,0.026878049597144127
1760898518928325600,4.78032568359375,-0.0015271619195118546,0.012370011769235134,0.024434590712189674
1760898518938014000,4.790013916015625,0.003359756199643016,0.005039634648710489,0.01954767294228077
1760898518947702300,4.799702392578125,0.007024944759905338,0.005039634648710489,0.009773836471140385
1760898518957390800,4.809390869140625,0.00946840364485979,0.0062613640911877155,0.003665188793092966
1760898518967079200,4.8190791015625,0.010690134018659592,0.005039634648710489,0.001221729558892548
1760898518976767700,4.828767822265625,0.005803215317428112,0.0038179049734026194,0
1760898518986456000,4.8384560546875,-0.000305432389723137,0.005039634648710489,-0.002443459117785096
1760898518996144600,4.84814453125,-0.003970621153712273,0.0062613640911877155,-0.003665188793092966
1760898519005833000,4.8578330078125,-0.0027488914784044027,0.009926552884280682,-0.007330377586185932
1760898519015521300,4.867521240234375,0.003359756199643016,0.016035201027989388,-0.018325943499803543
1760898519025209900,4.8772099609375,0.01435532234609127,0.01847865991294384,-0.03909534588456154
1760898519034898200,4.886898193359375,0.026572618633508682,0.025809036567807198,-0.06597339361906052
1760898519044586800,4.896586669921875,0.038789913058280945,0.033139415085315704,-0.09529490768909454
1760898519054275000,4.906275146484375,0.0461202897131443,0.02825249545276165,-0.12461641430854797
1760898519063963600,4.915963623046875,0.05100720748305321,0.025809036567807198,-0.14049890637397766
1760898519073652000,4.92565185546875,0.05345066636800766,0.01847865991294384,-0.14294235408306122
1760898519083340300,4.93534033203125,0.048563748598098755,0.017256930470466614,-0.13439024984836578
1760898519093028900,4.94502880859375,0.038789913058280945,0.01847865991294384,-0.11239911615848541
1760898519102717200,4.95471728515625,0.025350889191031456,0.016035201027989388,-0.08429934084415436
1760898519112405800,4.96440576171875,0.01435532234609127,0.012370011769235134,-0.05742128938436508
1760898519122094000,4.974093994140625,0.004581485874950886,0.0062613640911877155,-0.034208428114652634
1760898519131782700,4.98378271484375,-0.0015271619195118546,0.0062613640911877155,-0.010995565913617611
1760898519141471000,4.993470947265625,-0.006414080038666725,0.008704823441803455,0.013439024798572063
1760898519151159600,5.00315966796875,-0.010079269297420979,0.01359174121171236,0.03787361457943916
1760898519160848000,5.012847900390625,-0.012522728182375431,0.016035201027989388,0.059864748269319534
1760898519170536400,5.022536376953125,-0.011300998739898205,0.014813470654189587,0.07452550530433655
1760898519180224800,5.032224853515625,-0.006414080038666725,0.012370011769235134,0.07941242307424545
1760898519189913300,5.041913330078125,-0.003970621153712273,0.012370011769235134,0.07330377399921417
1760898519199601700,5.0516015625,-0.0027488914784044027,0.012370011769235134,0.059864748269319534
1760898519209290000,5.0612900390625,-0.000305432389723137,0.0062613640911877155,0.03909534588456154
1760898519218978600,5.070978515625,0.004581485874950886,0.0025961752980947495,0.013439024798572063
1760898519228667000,5.0806669921875,0.010690134018659592,0.0025961752980947495,-0.014660755172371864
1760898519238355500,5.09035546875,0.013133592903614044,0.0038179049734026194,-0.03787361457943916
1760898519248043800,5.100043701171875,0.010690134018659592,0.005039634648710489,-0.05253437161445618
1760898519257732400,5.109732421875,0.005803215317428112,0.0013744457392022014,-0.053756099194288254
1760898519267420700,5.119420654296875,0.004581485874950886,-0.007177661173045635,-0.04764745384454727
1760898519277109200,5.129109130859375,0.008246674202382565,-0.014508038759231567,-0.036651886999607086
1760898519286797600,5.138797607421875,0.013133592903614044,-0.01695149764418602,-0.0256563201546669
1760898519296486100,5.148486083984375,0.011911863461136818,-0.01206457894295454,-0.012217295356094837
1760898519306174500,5.158174560546875,0.007024944759905338,-0.007177661173045635,0.004886918235570192
1760898519315863000,5.167863037109375,0.0021380267571657896,-0.003512472379952669,0.021991131827235222
1760898519325551400,5.17755126953125,-0.0015271619195118546,0.0025961752980947495,0.030543239787220955
1760898519335240000,5.187239990234375,-0.0027488914784044027,0.012370011769235134,0.034208428114652634
1760898519344928300,5.19692822265625,-0.003970621153712273,0.019700389355421066,0.03298669680953026
1760898519354616800,5.206616943359375,-0.005192350596189499,0.020922118797898293,0.030543239787220955
1760898519364305200,5.21630517578125,-0.003970621153712273,0.016035201027989388,0.0256563201546669
1760898519373993700,5.22599365234375,-0.0027488914784044027,0.01359174121171236,0.020769402384757996
1760898519383682300,5.235682373046875,-0.000305432389723137,0.005039634648710489,0.01588248461484909
1760898519393370600,5.24537060546875,0.007024944759905338,-0.007177661173045635,0.006108647678047419
1760898519403059200,5.25505908203125,0.013133592903614044,-0.013286309316754341,-0.006108647678047419
1760898519412747500,5.26474755859375,0.01435532234609127,-0.01206457894295454,-0.018325943499803543
1760898519422436000,5.27443603515625,0.013133592903614044,-0.010842849500477314,-0.024434590712189674
1760898519432124400,5.28412451171875,0.005803215317428112,-0.010842849500477314,-0.02932151034474373
1760898519441813000,5.29381298828125,-0.0015271619195118546,-0.005955931730568409,-0.02932151034474373
1760898519451501300,5.303501220703125,-0.006414080038666725,-0.004734201822429895,-0.026878049597144127
1760898519461190000,5.31318994140625,-0.006414080038666725,-0.004734201822429895,-0.021991131827235222
1760898519470878200,5.322878173828125,-0.006414080038666725,-0.004734201822429895,-0.010995565913617611
1760898519480566800,5.33256689453125,-0.006414080038666725,-0.0010690133785828948,0.002443459117785096
1760898519490255000,5.342255126953125,-0.008857538923621178,0.0038179049734026194,0.021991131827235222
1760898519499943700,5.351943603515625,-0.013744457624852657,0.007483093533664942,0.04276053607463837
1760898519509632300,5.36163232421875,-0.014966187067329884,0.011148282326757908,0.056199558079242706
1760898519519320600,5.371320556640625,-0.011300998739898205,0.017256930470466614,0.06352993845939636
1760898519529009200,5.381009033203125,-0.0027488914784044027,0.025809036567807198,0.06108647957444191
1760898519538697500,5.390697509765625,0.00946840364485979,0.02458730712532997,0.04886918142437935
1760898519548386000,5.400385986328125,0.016798781231045723,0.017256930470466614,0.03176496922969818
1760898519558074400,5.410074462890625,0.021685699000954628,0.014813470654189587,0.01588248461484909
1760898519567763000,5.419762939453125,0.021685699000954628,0.01359174121171236,0.006108647678047419
1760898519577451300,5.429451171875,0.019242240116000175,0.011148282326757908,0.001221729558892548
1760898519587139800,5.439139892578125,0.015577051788568497,0.012370011769235134,0.001221729558892548
1760898519596828200,5.448828125,0.013133592903614044,0.017256930470466614,0.006108647678047419
1760898519606516700,5.458516845703125,0.010690134018659592,0.023365577682852745,0.01588248461484909
1760898519616205300,5.468205322265625,0.010690134018659592,0.027030766010284424,0.028099779039621353
1760898519625893600,5.4778935546875,0.013133592903614044,0.03558287397027016,0.040317077189683914
1760898519635582200,5.487582275390625,0.013133592903614044,0.042913250625133514,0.050090912729501724
1760898519645270500,5.4972705078125,0.01435532234609127,0.04780016839504242,0.05742128938436508
1760898519654959000,5.506958984375,0.01802051067352295,0.0539088174700737,0.06230820715427399
1760898519664647400,5.5166474609375,0.026572618633508682,0.058795735239982605,0.06108647957444191
1760898519674336000,5.5263359375,0.035124726593494415,0.06246092543005943,0.059864748269319534
1760898519684024600,5.536024658203125,0.04001164436340332,0.06856957077980042,0.059864748269319534
1760898519693713000,5.545712890625,0.038789913058280945,0.07712167501449585,0.06230820715427399
1760898519703401500,5.5554013671875,0.032681263983249664,0.08200860023498535,0.06597339361906052
1760898519713089800,5.56508984375,0.02412915788590908,0.08323032408952713,0.06719512492418289
1760898519722778400,5.5747783203125,0.0204639695584774,0.07101303339004517,0.06475166976451874
1760898519732467000,5.584467041015625,0.016798781231045723,0.04413498193025589,0.05742128938436508
1760898519742155300,5.5941552734375,0.010690134018659592,0.020922118797898293,0.046425722539424896
1760898519751843800,5.60384375,-0.000305432389723137,0.0062613640911877155,0.03787361457943916
1760898519761532200,5.6135322265625,-0.010079269297420979,0.0013744457392022014,0.03787361457943916
1760898519771220700,5.623220703125,-0.016187917441129684,-0.003512472379952669,0.04153880476951599
1760898519780909000,5.632908935546875,-0.018631376326084137,-0.008399390615522861,0.036651886999607086
1760898519790597600,5.64259765625,-0.018631376326084137,-0.01206457894295454,0.021991131827235222
1760898519800286200,5.6522861328125,-0.018631376326084137,-0.018173227086663246,-0.002443459117785096
1760898519809974500,5.661974609375,-0.018631376326084137,-0.02672533318400383,-0.034208428114652634
1760898519819663000,5.6716630859375,-0.019853105768561363,-0.041386090219020844,-0.06475166976451874
1760898519829351700,5.6813515625,-0.02107483521103859,-0.05971203371882439,-0.09285144507884979
1760898519839040000,5.6910400390625,-0.02107483521103859,-0.07681624591350555,-0.11728604137897491
1760898519848728600,5.700728515625,-0.022296564653515816,-0.08659008145332336,-0.13683371245861053
1760898519858417000,5.7104169921875,-0.024740023538470268,-0.08903354406356812,-0.14294235408306122
1760898519868105500,5.72010546875,-0.022296564653515816,-0.09147699922323227,-0.13439024984836578
1760898519877793800,5.729793701171875,-0.016187917441129684,-0.08903354406356812,-0.11484257876873016
1760898519887482400,5.739482421875,-0.008857538923621178,-0.0743727833032608,-0.08674279600381851
1760898519897171000,5.7491708984375,-0.0027488914784044027,-0.05604684352874756,-0.053756099194288254
1760898519906859300,5.758859375,0.003359756199643016,-0.03527744114398956,-0.018325943499803543
1760898519916547800,5.7685478515625,0.005803215317428112,-0.010842849500477314,0.014660755172371864
1760898519926236400,5.778236328125,0.00946840364485979,0.01359174121171236,0.04276053607463837
1760898519935924700,5.7879248046875,0.00946840364485979,0.030695954337716103,0.06597339361906052
1760898519945613300,5.79761328125,0.00946840364485979,0.04046979174017906,0.08063415437936783
1760898519955302000,5.807302001953125,0.008246674202382565,0.04535670951008797,0.09040798991918564
1760898519964990200,5.816990234375,0.010690134018659592,0.039248060435056686,0.09040798991918564
1760898519974678800,5.8266787109375,0.013133592903614044,0.033139415085315704,0.08307760953903198
1760898519984367000,5.8363671875,0.01435532234609127,0.03436114266514778,0.06963858753442764
1760898519994055700,5.8460556640625,0.015577051788568497,0.033139415085315704,0.05497783049941063
1760898520003744300,5.855744140625,0.015577051788568497,0.025809036567807198,0.03787361457943916
1760898520013432600,5.8654326171875,0.01435532234609127,0.017256930470466614,0.017104214057326317
1760898520023121200,5.87512109375,0.008246674202382565,0.009926552884280682,-0.006108647678047419
1760898520032809500,5.8848095703125,-0.0027488914784044027,-0.0010690133785828948,-0.020769402384757996
1760898520042498000,5.894498046875,-0.014966187067329884,-0.010842849500477314,-0.026878049597144127
1760898520052186600,5.9041865234375,-0.024740023538470268,-0.019394956529140472,-0.0256563201546669
1760898520061875000,5.913875,-0.029626941308379173,-0.01695149764418602,-0.021991131827235222
1760898520071563500,5.9235634765625,-0.03329212963581085,-0.009621120058000088,-0.014660755172371864
1760898520081252000,5.933252197265625,-0.03329212963581085,-0.0010690133785828948,-0.001221729558892548
1760898520090940400,5.9429404296875,-0.029626941308379173,0.0038179049734026194,0.014660755172371864
1760898520100629000,5.95262890625,-0.023518294095993042,0.009926552884280682,0.030543239787220955
1760898520110317600,5.962317626953125,-0.014966187067329884,0.014813470654189587,0.04276053607463837
1760898520120006000,5.972005859375,-0.006414080038666725,0.012370011769235134,0.04764745384454727
1760898520129694500,5.981694580078125,-0.0027488914784044027,0.008704823441803455,0.04520399495959282
1760898520139382800,5.9913828125,-0.0027488914784044027,0.007483093533664942,0.04153880476951599
1760898520149071400,6.0010712890625,-0.007635809946805239,0.005039634648710489,0.03787361457943916
1760898520158760000,6.010760009765625,-0.011300998739898205,0.005039634648710489,0.03787361457943916
1760898520168448300,6.0204482421875,-0.010079269297420979,0.0062613640911877155,0.034208428114652634
1760898520178136800,6.03013671875,-0.005192350596189499,0.009926552884280682,0.0256563201546669
1760898520187825400,6.039825439453125,0.0021380267571657896,0.016035201027989388,0.01588248461484909
1760898520197513700,6.049513671875,0.00946840364485979,0.017256930470466614,0.009773836471140385
1760898520207202300,6.059202392578125,0.015577051788568497,0.01359174121171236,0.006108647678047419
1760898520216891000,6.068890869140625,0.0204639695584774,0.007483093533664942,0.006108647678047419
1760898520226579200,6.0785791015625,0.022907428443431854,0.0025961752980947495,0.008552107028663158
1760898520236267800,6.088267822265625,0.01802051067352295,0.0001527161948615685,0.012217295356094837
1760898520245956400,6.097956298828125,0.008246674202382565,0.0013744457392022014,0.01588248461484909
1760898520255644700,6.107644775390625,-0.0015271619195118546,0.0013744457392022014,0.017104214057326317
1760898520265333200,6.117333251953125,-0.007635809946805239,0.0013744457392022014,0.017104214057326317
1760898520275021800,6.127021728515625,-0.008857538923621178,0.0038179049734026194,0.014660755172371864
1760898520284710100,6.136710205078125,-0.008857538923621178,0.0038179049734026194,0.010995565913617611
1760898520294398700,6.146398681640625,-0.007635809946805239,0.0025961752980947495,0.009773836471140385
1760898520304087300,6.15608740234375,-0.005192350596189499,-0.003512472379952669,0.008552107028663158
1760898520313775600,6.165775634765625,-0.000305432389723137,-0.007177661173045635,0.007330377586185932
1760898520323464200,6.175464111328125,0.0021380267571657896,-0.004734201822429895,0.006108647678047419
1760898520333152800,6.18515283203125,0.0009162971982732415,-0.005955931730568409,0.002443459117785096
1760898520342841000,6.194841064453125,-0.000305432389723137,-0.01695149764418602,-0.003665188793092966
1760898520352529700,6.20452978515625,-0.0027488914784044027,-0.024281874299049377,-0.017104214057326317
1760898520362218200,6.21421826171875,-0.003970621153712273,-0.025503603741526604,-0.03298669680953026
1760898520371906600,6.223906494140625,-0.003970621153712273,-0.02916879393160343,-0.04276053607463837
1760898520381595100,6.23359521484375,-0.007635809946805239,-0.03405570983886719,-0.050090912729501724
1760898520391283700,6.24328369140625,-0.012522728182375431,-0.03527744114398956,-0.0513126403093338
1760898520400972300,6.25297216796875,-0.018631376326084137,-0.027947064489126205,-0.043982263654470444
1760898520410660600,6.26266064453125,-0.022296564653515816,-0.018173227086663246,-0.026878049597144127
1760898520420349200,6.27234912109375,-0.022296564653515816,-0.007177661173045635,-0.006108647678047419
1760898520430037800,6.282037841796875,-0.02107483521103859,0.0062613640911877155,0.01588248461484909
1760898520439726000,6.29172607421875,-0.018631376326084137,0.01359174121171236,0.03909534588456154
1760898520449414700,6.30141455078125,-0.011300998739898205,0.017256930470466614,0.05742128938436508
1760898520459103200,6.311103271484375,-0.000305432389723137,0.025809036567807198,0.06352993845939636
1760898520468791600,6.32079150390625,0.01435532234609127,0.027030766010284424,0.053756099194288254
1760898520478480100,6.330480224609375,0.026572618633508682,0.020922118797898293,0.03543015569448471
1760898520488168700,6.340168701171875,0.032681263983249664,0.016035201027989388,0.018325943499803543
1760898520497857000,6.34985693359375,0.03145953640341759,0.01359174121171236,0.003665188793092966
1760898520507545600,6.359545654296875,0.022907428443431854,0.011148282326757908,-0.006108647678047419
1760898520517234200,6.369234130859375,0.013133592903614044,0.009926552884280682,-0.009773836471140385
1760898520526922500,6.378922607421875,0.0021380267571657896,0.011148282326757908,-0.009773836471140385
1760898520536611000,6.388611083984375,-0.006414080038666725,0.009926552884280682,-0.007330377586185932
1760898520546299600,6.398299560546875,-0.010079269297420979,0.007483093533664942,-0.006108647678047419
1760898520555988200,6.40798828125,-0.011300998739898205,0.0025961752980947495,-0.003665188793092966
1760898520565676500,6.417676513671875,-0.010079269297420979,-0.005955931730568409,0.001221729558892548
1760898520575365000,6.427365234375,-0.010079269297420979,-0.01206457894295454,0.008552107028663158
1760898520585053700,6.4370537109375,-0.012522728182375431,-0.01695149764418602,0.01954767294228077
1760898520594742000,6.446741943359375,-0.014966187067329884,-0.01206457894295454,0.03176496922969818
1760898520604430600,6.4564306640625,-0.01740964688360691,-0.003512472379952669,0.04276053607463837
1760898520614119200,6.466119140625,-0.018631376326084137,0.005039634648710489,0.05253437161445618
1760898520623807500,6.475807373046875,-0.019853105768561363,0.009926552884280682,0.059864748269319534
1760898520633496000,6.48549609375,-0.028405211865901947,0.014813470654189587,0.06475166976451874
1760898520643184600,6.4951845703125,-0.03817904740571976,0.02214384824037552,0.07330377399921417
1760898520652873200,6.504873291015625,-0.04673115536570549,0.03191768378019333,0.08552107214927673
1760898520662561500,6.5145615234375,-0.051618073135614395,0.04046979174017906,0.10140355676412582
1760898520672250000,6.52425,-0.047952886670827866,0.04780016839504242,0.1185077652335167
1760898520681938700,6.533938720703125,-0.03451386094093323,0.052687086164951324,0.12950333952903748
1760898520691627000,6.543626953125,-0.022296564653515816,0.058795735239982605,0.12583814561367035
1760898520701315600,6.553315673828125,-0.008857538923621178,0.06734783947467804,0.11239911615848541
1760898520711004200,6.563004150390625,0.004581485874950886,0.07223475724458694,0.0977383628487587
1760898520720692700,6.572692626953125,0.01435532234609127,0.07712167501449585,0.08918625861406326
1760898520730381000,6.582381103515625,0.021685699000954628,0.0795651376247406,0.08674279600381851
1760898520740069600,6.592069580078125,0.02412915788590908,0.07589995115995407,0.08674279600381851
1760898520749758200,6.60175830078125,0.0204639695584774,0.06612611562013626,0.08063415437936783
1760898520759446800,6.61144677734375,0.01802051067352295,0.04535670951008797,0.06597339361906052
1760898520769135000,6.621135009765625,0.013133592903614044,0.016035201027989388,0.040317077189683914
1760898520778823700,6.63082373046875,0.010690134018659592,0.0013744457392022014,0.003665188793092966
1760898520788512300,6.64051220703125,0.011911863461136818,-0.002290742937475443,-0.0256563201546669
1760898520798200600,6.65020068359375,0.00946840364485979,-0.01695149764418602,-0.04276053607463837
1760898520807889200,6.65988916015625,0.004581485874950886,-0.031612250953912735,-0.04764745384454727
1760898520817577700,6.66957763671875,-0.0015271619195118546,-0.037720900028944016,-0.04764745384454727
1760898520827266300,6.679266357421875,-0.0027488914784044027,-0.03527744114398956,-0.050090912729501724
1760898520836954600,6.68895458984375,-0.005192350596189499,-0.02916879393160343,-0.0513126403093338
1760898520846643200,6.698643310546875,-0.006414080038666725,-0.021838415414094925,-0.043982263654470444
1760898520856331800,6.708331787109375,-0.006414080038666725,-0.0206166859716177,-0.02932151034474373
1760898520866020400,6.718020263671875,-0.007635809946805239,-0.015729768201708794,-0.013439024798572063
1760898520875708700,6.727708740234375,-0.011300998739898205,-0.002290742937475443,-0.002443459117785096
1760898520885397200,6.737397216796875,-0.012522728182375431,0.009926552884280682,0.004886918235570192
1760898520895085800,6.7470859375,-0.011300998739898205,0.017256930470466614,0.009773836471140385
1760898520904774100,6.756774169921875,-0.008857538923621178,0.019700389355421066,0.013439024798572063
1760898520914462700,6.766462646484375,-0.007635809946805239,0.023365577682852745,0.017104214057326317
1760898520924151300,6.7761513671875,-0.006414080038666725,0.01847865991294384,0.023212861269712448
1760898520933840000,6.78583984375,-0.005192350596189499,0.01359174121171236,0.03176496922969818
1760898520943528400,6.795528564453125,-0.0015271619195118546,0.016035201027989388,0.03787361457943916
1760898520953216800,6.805216796875,0.0021380267571657896,0.02458730712532997,0.04153880476951599
1760898520962905300,6.8149052734375,0.008246674202382565,0.02825249545276165,0.04276053607463837
1760898520972594000,6.824593994140625,0.010690134018659592,0.027030766010284424,0.03787361457943916
1760898520982282500,6.834282470703125,0.013133592903614044,0.01847865991294384,0.023212861269712448
1760898520991970800,6.843970703125,0.015577051788568497,0.008704823441803455,0.002443459117785096
1760898521001659400,6.853659423828125,0.015577051788568497,0.0001527161948615685,-0.018325943499803543
1760898521011348000,6.863347900390625,0.011911863461136818,-0.004734201822429895,-0.03543015569448471
1760898521021036500,6.87303662109375,0.005803215317428112,-0.008399390615522861,-0.04520399495959282
1760898521030724900,6.882724853515625,-0.0015271619195118546,-0.013286309316754341,-0.04153880476951599
1760898521040413400,6.892413330078125,-0.008857538923621178,-0.01695149764418602,-0.03298669680953026
1760898521050102000,6.90210205078125,-0.013744457624852657,-0.018173227086663246,-0.024434590712189674
1760898521059790600,6.91179052734375,-0.014966187067329884,-0.014508038759231567,-0.018325943499803543
1760898521069479000,6.92147900390625,-0.012522728182375431,-0.009621120058000088,-0.013439024798572063
1760898521079167500,6.93116748046875,-0.008857538923621178,-0.007177661173045635,-0.006108647678047419
1760898521088856000,6.94085595703125,-0.0027488914784044027,-0.004734201822429895,0
1760898521098544600,6.950544677734375,0.004581485874950886,-0.009621120058000088,0.001221729558892548
1760898521108233000,6.96023291015625,0.011911863461136818,-0.01206457894295454,-0.003665188793092966
1760898521117921500,6.969921630859375,0.016798781231045723,-0.010842849500477314,-0.004886918235570192
1760898521127610000,6.979610107421875,0.02412915788590908,-0.01206457894295454,-0.004886918235570192
1760898521137298700,6.989298583984375,0.026572618633508682,-0.019394956529140472,-0.013439024798572063
1760898521146987000,6.998987060546875,0.019242240116000175,-0.02306014485657215,-0.03787361457943916
1760898521156675600,7.008675537109375,0.010690134018659592,-0.019394956529140472,-0.06475166976451874
1760898521166364200,7.0183642578125,0.005803215317428112,-0.01695149764418602,-0.08063415437936783
1760898521176052700,7.028052734375,0.003359756199643016,-0.018173227086663246,-0.08063415437936783
1760898521185741300,7.0377412109375,-0.000305432389723137,-0.018173227086663246,-0.06352993845939636
1760898521195429600,7.0474296875,-0.0015271619195118546,-0.01206457894295454,-0.036651886999607086
1760898521205118200,7.0571181640625,0.0009162971982732415,-0.003512472379952669,-0.007330377586185932
1760898521214806800,7.066806884765625,0.005803215317428112,0.0038179049734026194,0.020769402384757996
1760898521224495400,7.076495361328125,0.003359756199643016,0.011148282326757908,0.04520399495959282
1760898521234183700,7.08618359375,-0.000305432389723137,0.012370011769235134,0.06352993845939636
1760898521243872300,7.095872314453125,-0.008857538923621178,0.009926552884280682,0.0769689604640007
1760898521253560800,7.105560791015625,-0.016187917441129684,0.017256930470466614,0.08063415437936783
1760898521263249400,7.11524951171875,-0.018631376326084137,0.025809036567807198,0.0769689604640007
1760898521272938000,7.12493798828125,-0.016187917441129684,0.02458730712532997,0.06475166976451874
1760898521282626300,7.134626220703125,-0.008857538923621178,0.01359174121171236,0.040317077189683914
1760898521292315000,7.14431494140625,0.003359756199643016,0.005039634648710489,0.009773836471140385
1760898521302003500,7.15400341796875,0.016798781231045723,-0.0010690133785828948,-0.01954767294228077
1760898521311692000,7.163692138671875,0.025350889191031456,-0.01206457894295454,-0.04153880476951599
1760898521321380400,7.17338037109375,0.02412915788590908,-0.024281874299049377,-0.04764745384454727
1760898521331069000,7.18306884765625,0.01435532234609127,-0.02916879393160343,-0.043982263654470444
1760898521340757500,7.192757568359375,0.0009162971982732415,-0.02672533318400383,-0.03298669680953026
1760898521350446000,7.202446044921875,-0.012522728182375431,-0.0206166859716177,-0.018325943499803543
1760898521360134700,7.212134765625,-0.024740023538470268,-0.013286309316754341,-0.003665188793092966
1760898521369823000,7.221822998046875,-0.032070402055978775,-0.01206457894295454,0.013439024798572063
1760898521379511600,7.231511474609375,-0.03695731982588768,-0.0206166859716177,0.034208428114652634
1760898521389200100,7.2412001953125,-0.04062250629067421,-0.02306014485657215,0.053756099194288254
1760898521398888700,7.250888671875,-0.03817904740571976,-0.013286309316754341,0.06841685622930527
1760898521408577300,7.260577392578125,-0.02718348242342472,0.0001527161948615685,0.06963858753442764
1760898521418265600,7.270265625,-0.008857538923621178,0.008704823441803455,0.053756099194288254
1760898521427954200,7.2799541015625,0.008246674202382565,0.017256930470466614,0.02932151034474373
1760898521437642800,7.289642822265625,0.01802051067352295,0.019700389355421066,0.008552107028663158
1760898521447331300,7.299331298828125,0.0204639695584774,0.01847865991294384,-0.002443459117785096
1760898521457020000,7.30902001953125,0.016798781231045723,0.017256930470466614,-0.006108647678047419
1760898521466708200,7.318708251953125,0.00946840364485979,0.01847865991294384,-0.007330377586185932
1760898521476396800,7.328396728515625,0.0021380267571657896,0.01847865991294384,-0.007330377586185932
1760898521486085400,7.33808544921875,-0.0015271619195118546,0.016035201027989388,-0.007330377586185932
1760898521495774000,7.34777392578125,-0.0015271619195118546,0.011148282326757908,-0.006108647678047419
1760898521505462500,7.357462646484375,-0.000305432389723137,0.0062613640911877155,-0.003665188793092966
1760898521515151000,7.367151123046875,-0.000305432389723137,0.0013744457392022014,0
1760898521524839400,7.37683935546875,-0.0027488914784044027,0.0025961752980947495,0.008552107028663158
1760898521534528000,7.386528076171875,-0.007635809946805239,0.009926552884280682,0.0256563201546669
1760898521544216600,7.396216552734375,-0.013744457624852657,0.019700389355421066,0.050090912729501724
1760898521553905200,7.4059052734375,-0.01740964688360691,0.03191768378019333,0.07941242307424545
1760898521563593500,7.415593505859375,-0.019853105768561363,0.03802633285522461,0.09896009415388107
1760898521573282000,7.425281982421875,-0.01740964688360691,0.036804601550102234,0.10140355676412582
1760898521582970600,7.434970703125,-0.010079269297420979,0.04169152304530144,0.08307760953903198
1760898521592659200,7.4446591796875,0.0021380267571657896,0.03558287397027016,0.053756099194288254
1760898521602347800,7.45434765625,0.01435532234609127,0.019700389355421066,0.018325943499803543
1760898521612036400,7.464036376953125,0.02412915788590908,0.0025961752980947495,-0.01588248461484909
1760898521621724700,7.473724609375,0.02779434807598591,-0.007177661173045635,-0.043982263654470444
1760898521631413200,7.483413330078125,0.022907428443431854,-0.015729768201708794,-0.06108647957444191
1760898521641101800,7.493101806640625,0.010690134018659592,-0.018173227086663246,-0.06475166976451874
1760898521650790400,7.502790283203125,-0.003970621153712273,-0.019394956529140472,-0.053756099194288254
1760898521660479000,7.51247900390625,-0.016187917441129684,-0.018173227086663246,-0.03543015569448471
1760898521670167600,7.52216748046875,-0.024740023538470268,-0.014508038759231567,-0.012217295356094837
1760898521679855900,7.53185595703125,-0.02718348242342472,-0.007177661173045635,0.008552107028663158
1760898521689544400,7.54154443359375,-0.024740023538470268,-0.004734201822429895,0.023212861269712448
1760898521699233000,7.55123291015625,-0.01740964688360691,-0.004734201822429895,0.028099779039621353
1760898521708921600,7.560921630859375,-0.007635809946805239,-0.003512472379952669,0.021991131827235222
1760898521718610200,7.570610107421875,-0.000305432389723137,0.0038179049734026194,0.009773836471140385
1760898521728298800,7.580298828125,0.003359756199643016,0.011148282326757908,0.002443459117785096
1760898521737987000,7.589987060546875,0.005803215317428112,0.012370011769235134,0
1760898521747675600,7.599675537109375,0.005803215317428112,0.005039634648710489,-0.001221729558892548
1760898521757364200,7.6093642578125,0.008246674202382565,0.0001527161948615685,-0.008552107028663158
1760898521767052800,7.619052734375,0.011911863461136818,0.005039634648710489,-0.020769402384757996
1760898521776741400,7.628741455078125,0.01435532234609127,0.008704823441803455,-0.02932151034474373
1760898521786430000,7.638429931640625,0.013133592903614044,0.005039634648710489,-0.030543239787220955
1760898521796118300,7.6481181640625,0.010690134018659592,0.0001527161948615685,-0.026878049597144127
1760898521805806800,7.657806884765625,0.010690134018659592,0.0001527161948615685,-0.021991131827235222
1760898521815495400,7.667495361328125,0.010690134018659592,0.0001527161948615685,-0.017104214057326317
1760898521825184000,7.67718408203125,0.005803215317428112,0.0025961752980947495,-0.010995565913617611
1760898521834872600,7.68687255859375,-0.000305432389723137,0.0025961752980947495,-0.001221729558892548
1760898521844561200,7.69656103515625,-0.005192350596189499,0.0025961752980947495,0.009773836471140385
1760898521854249500,7.70624951171875,-0.007635809946805239,0.0025961752980947495,0.018325943499803543
1760898521863938000,7.71593798828125,-0.005192350596189499,0.0013744457392022014,0.024434590712189674
1760898521873626600,7.725626708984375,0.0009162971982732415,0.0013744457392022014,0.021991131827235222
1760898521883315200,7.735315185546875,0.005803215317428112,0.0038179049734026194,0.017104214057326317
1760898521893003800,7.745003662109375,0.010690134018659592,0.005039634648710489,0.009773836471140385
1760898521902692400,7.7546923828125,0.013133592903614044,-0.003512472379952669,-0.001221729558892548
1760898521912381000,7.764380859375,0.011911863461136818,-0.01206457894295454,-0.014660755172371864
1760898521922069200,7.7740693359375,0.00946840364485979,-0.014508038759231567,-0.026878049597144127
1760898521931757800,7.7837578125,0.004581485874950886,-0.013286309316754341,-0.03543015569448471
1760898521941446400,7.7934462890625,-0.0015271619195118546,-0.01695149764418602,-0.036651886999607086
1760898521951135000,7.803135009765625,-0.007635809946805239,-0.018173227086663246,-0.02932151034474373
1760898521960823600,7.812823486328125,-0.011300998739898205,-0.019394956529140472,-0.018325943499803543
1760898521970512100,7.82251220703125,-0.010079269297420979,-0.019394956529140472,-0.009773836471140385
1760898521980200700,7.83220068359375,-0.006414080038666725,-0.013286309316754341,-0.006108647678047419
1760898521989889300,7.84188916015625,-0.0027488914784044027,-0.004734201822429895,-0.006108647678047419
1760898521999577600,7.85157763671875,-0.0015271619195118546,0.0001527161948615685,-0.007330377586185932
1760898522009266200,7.86126611328125,-0.0015271619195118546,-0.0010690133785828948,-0.007330377586185932
1760898522018954800,7.870954833984375,-0.0027488914784044027,0.0001527161948615685,-0.006108647678047419
1760898522028643300,7.880643310546875,-0.0027488914784044027,0.005039634648710489,-0.002443459117785096
1760898522038332000,7.890331787109375,-0.0015271619195118546,0.007483093533664942,0
1760898522048020500,7.9000205078125,-0.0015271619195118546,0.005039634648710489,-0.001221729558892548
1760898522057709000,7.909708984375,-0.0015271619195118546,0.007483093533664942,-0.007330377586185932
1760898522067397400,7.9193974609375,0.0021380267571657896,0.009926552884280682,-0.014660755172371864
1760898522077086000,7.9290859375,0.004581485874950886,0.007483093533664942,-0.01588248461484909
1760898522086774500,7.9387744140625,0.008246674202382565,0.0038179049734026194,-0.010995565913617611
1760898522096463000,7.948463134765625,0.010690134018659592,0.0025961752980947495,-0.006108647678047419
1760898522106151700,7.958151611328125,0.011911863461136818,0.0062613640911877155,-0.001221729558892548
1760898522115840300,7.96784033203125,0.013133592903614044,0.0025961752980947495,0.004886918235570192
1760898522125528800,7.97752880859375,0.011911863461136818,-0.004734201822429895,0.012217295356094837
1760898522135217400,7.987217529296875,0.00946840364485979,-0.008399390615522861,0.01588248461484909
1760898522144906000,7.996906005859375,0.003359756199643016,-0.009621120058000088,0.017104214057326317
1760898522154594300,8.00659423828125,-0.005192350596189499,-0.010842849500477314,0.013439024798572063
1760898522164283000,8.016282958984375,-0.016187917441129684,-0.014508038759231567,0.009773836471140385
1760898522173971500,8.025971435546875,-0.023518294095993042,-0.014508038759231567,0.003665188793092966
1760898522183660000,8.035659912109375,-0.02718348242342472,-0.013286309316754341,-0.002443459117785096
1760898522193348600,8.0453486328125,-0.025961752980947495,-0.013286309316754341,-0.004886918235570192
1760898522203037200,8.055037109375,-0.018631376326084137,-0.014508038759231567,-0.002443459117785096
1760898522212725800,8.064725830078125,-0.011300998739898205,-0.01206457894295454,0.004886918235570192
1760898522222414300,8.074414306640625,-0.003970621153712273,-0.009621120058000088,0.013439024798572063
1760898522232103000,8.08410302734375,0.0009162971982732415,-0.007177661173045635,0.020769402384757996
1760898522241791200,8.093791259765625,0.004581485874950886,-0.0010690133785828948,0.023212861269712448
1760898522251479800,8.103479736328126,0.005803215317428112,0.007483093533664942,0.020769402384757996
1760898522261168400,8.11316845703125,0.004581485874950886,0.01359174121171236,0.017104214057326317
1760898522270857000,8.12285693359375,0.004581485874950886,0.012370011769235134,0.009773836471140385
1760898522280545500,8.132545654296875,0.007024944759905338,0.005039634648710489,0
1760898522290234000,8.142234130859375,0.013133592903614044,0.0013744457392022014,-0.012217295356094837
1760898522299922700,8.151922607421875,0.016798781231045723,-0.002290742937475443,-0.023212861269712448
1760898522309611300,8.161611328125,0.015577051788568497,-0.007177661173045635,-0.028099779039621353
1760898522319299800,8.1712998046875,0.011911863461136818,-0.013286309316754341,-0.024434590712189674
1760898522328988400,8.180988525390624,0.005803215317428112,-0.014508038759231567,-0.01588248461484909
1760898522338677000,8.190677001953125,-0.0015271619195118546,-0.010842849500477314,-0.004886918235570192
1760898522348365600,8.200365478515625,-0.007635809946805239,-0.009621120058000088,0.003665188793092966
1760898522358054000,8.210053955078125,-0.011300998739898205,-0.009621120058000088,0.008552107028663158
1760898522367742500,8.219742431640626,-0.011300998739898205,-0.004734201822429895,0.007330377586185932
1760898522377431000,8.22943115234375,-0.010079269297420979,0.0038179049734026194,0.003665188793092966
1760898522387119600,8.23911962890625,-0.006414080038666725,0.008704823441803455,0.004886918235570192
1760898522396808200,8.24880810546875,-0.0015271619195118546,0.0062613640911877155,0.010995565913617611
1760898522406496800,8.258496826171875,0.0009162971982732415,0.007483093533664942,0.017104214057326317
1760898522416185300,8.268185302734375,0.0009162971982732415,0.014813470654189587,0.021991131827235222
1760898522425874000,8.2778740234375,-0.000305432389723137,0.016035201027989388,0.028099779039621353
1760898522435562500,8.2875625,-0.000305432389723137,0.014813470654189587,0.03176496922969818
1760898522445251000,8.2972509765625,0.0009162971982732415,0.009926552884280682,0.030543239787220955
1760898522454939600,8.306939697265625,0.0009162971982732415,0.007483093533664942,0.0256563201546669
1760898522464628200,8.316628173828125,-0.000305432389723137,0.007483093533664942,0.018325943499803543
1760898522474316500,8.326316650390625,-0.0015271619195118546,0.007483093533664942,0.010995565913617611
1760898522484005400,8.33600537109375,-0.005192350596189499,0.008704823441803455,0.004886918235570192
1760898522493693700,8.345693603515626,-0.010079269297420979,0.005039634648710489,0.001221729558892548
1760898522503382300,8.35538232421875,-0.011300998739898205,-0.002290742937475443,0
1760898522513070800,8.36507080078125,-0.011300998739898205,-0.004734201822429895,-0.004886918235570192
1760898522522759400,8.374759521484375,-0.008857538923621178,-0.005955931730568409,-0.010995565913617611
1760898522532448000,8.384447998046875,-0.000305432389723137,-0.01206457894295454,-0.018325943499803543
1760898522542136600,8.394136474609375,0.00946840364485979,-0.01695149764418602,-0.028099779039621353
1760898522551825200,8.4038251953125,0.01802051067352295,-0.015729768201708794,-0.036651886999607086
1760898522561513700,8.413513671875,0.019242240116000175,-0.01206457894295454,-0.040317077189683914
1760898522571202300,8.423202392578125,0.01435532234609127,-0.010842849500477314,-0.03298669680953026
1760898522580891000,8.432890869140625,0.007024944759905338,-0.008399390615522861,-0.023212861269712448
1760898522590579500,8.442579345703125,-0.0015271619195118546,-0.002290742937475443,-0.013439024798572063
1760898522600268000,8.45226806640625,-0.008857538923621178,0.0001527161948615685,-0.006108647678047419
1760898522609956600,8.46195654296875,-0.011300998739898205,-0.0010690133785828948,0
1760898522619645000,8.47164501953125,-0.012522728182375431,-0.002290742937475443,0.004886918235570192
1760898522629333800,8.481333740234374,-0.012522728182375431,0.0001527161948615685,0.008552107028663158
1760898522639022000,8.49102197265625,-0.006414080038666725,-0.002290742937475443,0.008552107028663158
1760898522648710700,8.500710693359375,0.004581485874950886,-0.007177661173045635,0.001221729558892548
1760898522658399200,8.510399169921875,0.01435532234609127,-0.005955931730568409,-0.013439024798572063
1760898522668087800,8.520087890625,0.01802051067352295,-0.003512472379952669,-0.026878049597144127
1760898522677776400,8.5297763671875,0.01435532234609127,-0.005955931730568409,-0.03543015569448471
1760898522687465000,8.53946484375,0.00946840364485979,-0.004734201822429895,-0.040317077189683914
1760898522697153500,8.549153564453125,0.005803215317428112,-0.003512472379952669,-0.03787361457943916
1760898522706842000,8.558842041015625,-0.000305432389723137,-0.007177661173045635,-0.028099779039621353
1760898522716530700,8.56853076171875,-0.006414080038666725,-0.008399390615522861,-0.017104214057326317
1760898522726219300,8.57821923828125,-0.010079269297420979,-0.007177661173045635,-0.007330377586185932
1760898522735907800,8.587907958984376,-0.010079269297420979,-0.007177661173045635,-0.001221729558892548
1760898522745596400,8.597596435546874,-0.008857538923621178,-0.004734201822429895,0.003665188793092966
1760898522755285000,8.607284912109375,-0.006414080038666725,-0.004734201822429895,0.008552107028663158
1760898522764973600,8.6169736328125,-0.005192350596189499,-0.002290742937475443,0.013439024798572063
1760898522774662100,8.626662109375,-0.003970621153712273,0.0038179049734026194,0.01954767294228077
1760898522784350700,8.636350830078126,-0.003970621153712273,0.007483093533664942,0.028099779039621353
1760898522794039300,8.646039306640626,-0.0015271619195118546,0.009926552884280682,0.03543015569448471
1760898522803728000,8.655727783203124,0.0021380267571657896,0.017256930470466614,0.036651886999607086
1760898522813416400,8.66541650390625,0.007024944759905338,0.023365577682852745,0.034208428114652634
1760898522823105000,8.67510498046875,0.010690134018659592,0.025809036567807198,0.0256563201546669
1760898522832793600,8.684793701171875,0.01435532234609127,0.02214384824037552,0.01588248461484909
1760898522842482200,8.694482177734375,0.01435532234609127,0.01847865991294384,0.006108647678047419
1760898522852170500,8.70417041015625,0.01435532234609127,0.01359174121171236,-0.002443459117785096
1760898522861859300,8.713859375,0.011911863461136818,0.007483093533664942,-0.009773836471140385
1760898522871547600,8.723547607421875,0.008246674202382565,0.0013744457392022014,-0.012217295356094837
1760898522881236200,8.733236328125,0.0021380267571657896,-0.004734201822429895,-0.010995565913617611
1760898522890924800,8.7429248046875,-0.003970621153712273,-0.008399390615522861,-0.008552107028663158
1760898522900613400,8.75261328125,-0.006414080038666725,-0.007177661173045635,-0.006108647678047419
1760898522910302000,8.762302001953126,-0.006414080038666725,-0.005955931730568409,-0.003665188793092966
1760898522919990500,8.771990478515624,-0.007635809946805239,-0.003512472379952669,0
1760898522929679000,8.78167919921875,-0.007635809946805239,-0.005955931730568409,0.003665188793092966
1760898522939367700,8.79136767578125,-0.008857538923621178,-0.007177661173045635,0.008552107028663158
1760898522949056300,8.80105615234375,-0.008857538923621178,-0.004734201822429895,0.010995565913617611
1760898522958744800,8.810744873046875,-0.007635809946805239,0.0001527161948615685,0.008552107028663158
1760898522968433400,8.820433349609376,-0.005192350596189499,0.0001527161948615685,0.002443459117785096
1760898522978122000,8.8301220703125,-0.0027488914784044027,-0.0010690133785828948,-0.003665188793092966
1760898522987810600,8.839810546875,-0.000305432389723137,-0.002290742937475443,-0.007330377586185932
1760898522997499100,8.8494990234375,-0.000305432389723137,-0.0010690133785828948,-0.007330377586185932
1760898523007187700,8.859187744140625,0.0009162971982732415,-0.0010690133785828948,-0.004886918235570192
1760898523016876300,8.868876220703125,0.0021380267571657896,0.0013744457392022014,-0.001221729558892548
1760898523026564900,8.87856494140625,0.003359756199643016,0.0001527161948615685,0.001221729558892548
1760898523036253400,8.88825341796875,0.0021380267571657896,-0.0010690133785828948,0.002443459117785096
1760898523045942000,8.89794189453125,0.0009162971982732415,0.0001527161948615685,0.002443459117785096
1760898523055630600,8.907630615234375,0.0021380267571657896,-0.002290742937475443,0.004886918235570192
1760898523065319200,8.917319091796875,0.0009162971982732415,-0.005955931730568409,0.006108647678047419
1760898523075007700,8.9270078125,-0.0027488914784044027,-0.005955931730568409,0.007330377586185932
1760898523084696300,8.9366962890625,-0.005192350596189499,-0.004734201822429895,0.006108647678047419
1760898523094385000,8.946385009765624,-0.003970621153712273,-0.003512472379952669,0.003665188793092966
1760898523104073500,8.956073486328124,-0.000305432389723137,0.0001527161948615685,0.001221729558892548
1760898523113762000,8.965761962890625,0.003359756199643016,0.0025961752980947495,-0.001221729558892548
1760898523123450600,8.97545068359375,0.008246674202382565,-0.0010690133785828948,-0.007330377586185932
1760898523133139200,8.98513916015625,0.008246674202382565,-0.0010690133785828948,-0.017104214057326317
1760898523142827800,8.994827880859376,0.005803215317428112,-0.0010690133785828948,-0.02932151034474373
1760898523152516400,9.004516357421876,0.0021380267571657896,-0.005955931730568409,-0.03909534588456154
1760898523162205000,9.014204833984374,-0.000305432389723137,-0.01695149764418602,-0.04153880476951599
1760898523171893500,9.0238935546875,-0.0015271619195118546,-0.021838415414094925,-0.03909534588456154
1760898523181582000,9.03358203125,-0.003970621153712273,-0.018173227086663246,-0.03298669680953026
1760898523191270700,9.043270751953125,-0.0027488914784044027,-0.014508038759231567,-0.0256563201546669
1760898523200959200,9.052959228515626,0.0021380267571657896,-0.013286309316754341,-0.01954767294228077
1760898523210647800,9.062647705078126,0.010690134018659592,-0.010842849500477314,-0.014660755172371864
1760898523220336400,9.07233642578125,0.01802051067352295,-0.01206457894295454,-0.009773836471140385
1760898523230025000,9.08202490234375,0.019242240116000175,-0.014508038759231567,-0.007330377586185932
1760898523239713500,9.091713623046875,0.01435532234609127,-0.01206457894295454,-0.007330377586185932
1760898523249402000,9.101402099609375,0.005803215317428112,-0.008399390615522861,-0.006108647678047419
1760898523259090700,9.111090576171875,-0.0015271619195118546,-0.008399390615522861,-0.004886918235570192
1760898523268779300,9.120779296875,-0.006414080038666725,-0.007177661173045635,-0.003665188793092966
1760898523278467800,9.1304677734375,-0.005192350596189499,-0.007177661173045635,-0.004886918235570192
1760898523288156400,9.140156494140625,-0.0027488914784044027,-0.005955931730568409,-0.008552107028663158
1760898523297845000,9.149844970703125,-0.000305432389723137,-0.005955931730568409,-0.012217295356094837
1760898523307533600,9.159533447265625,-0.000305432389723137,-0.008399390615522861,-0.013439024798572063
1760898523317222100,9.16922216796875,-0.0015271619195118546,-0.013286309316754341,-0.014660755172371864
1760898523326910700,9.17891064453125,-0.0015271619195118546,-0.01695149764418602,-0.013439024798572063
1760898523336599300,9.188599365234374,-0.005192350596189499,-0.015729768201708794,-0.009773836471140385
1760898523346287900,9.198287841796875,-0.006414080038666725,-0.007177661173045635,-0.006108647678047419
1760898523355976400,9.2079765625,-0.005192350596189499,-0.0010690133785828948,-0.002443459117785096
1760898523365665000,9.2176650390625,-0.0015271619195118546,0.005039634648710489,-0.001221729558892548
1760898523375353600,9.227353515625,0.003359756199643016,0.009926552884280682,0.001221729558892548
1760898523385042200,9.237042236328126,0.005803215317428112,0.01359174121171236,0.006108647678047419
1760898523394730800,9.246730712890624,0.004581485874950886,0.01359174121171236,0.014660755172371864
1760898523404419300,9.25641943359375,0.004581485874950886,0.01359174121171236,0.021991131827235222
1760898523414108000,9.26610791015625,0.003359756199643016,0.011148282326757908,0.021991131827235222
1760898523423796500,9.27579638671875,0.003359756199643016,0.008704823441803455,0.01588248461484909
1760898523433485000,9.285485107421875,0.0021380267571657896,0.007483093533664942,0.009773836471140385
1760898523443173600,9.295173583984376,0.0021380267571657896,0.0038179049734026194,0.006108647678047419
1760898523452862200,9.3048623046875,0.003359756199643016,-0.0010690133785828948,0.003665188793092966
1760898523462550800,9.31455078125,0.003359756199643016,-0.005955931730568409,0
1760898523472239400,9.3242392578125,0.0009162971982732415,-0.007177661173045635,-0.004886918235570192
1760898523481928000,9.333927978515625,-0.003970621153712273,-0.007177661173045635,-0.009773836471140385
1760898523491616500,9.343616455078125,-0.007635809946805239,-0.009621120058000088,-0.008552107028663158
1760898523501305000,9.35330517578125,-0.010079269297420979,-0.009621120058000088,-0.003665188793092966
1760898523510993700,9.36299365234375,-0.010079269297420979,-0.005955931730568409,0.002443459117785096
1760898523520682200,9.37268212890625,-0.006414080038666725,-0.0010690133785828948,0.002443459117785096
1760898523530370800,9.382370849609375,-0.000305432389723137,0.0038179049734026194,0.001221729558892548
1760898523540059600,9.3920595703125,0.005803215317428112,0.009926552884280682,0.001221729558892548
1760898523549748000,9.401748046875,0.010690134018659592,0.009926552884280682,0.001221729558892548
1760898523559436500,9.4114365234375,0.013133592903614044,0.007483093533664942,0.001221729558892548
1760898523569125400,9.42112548828125,0.010690134018659592,0.011148282326757908,0.002443459117785096
1760898523578814000,9.43081396484375,0.004581485874950886,0.016035201027989388,0.003665188793092966
1760898523588502500,9.44050244140625,-0.0027488914784044027,0.014813470654189587,0.009773836471140385
1760898523598191000,9.450191162109375,-0.008857538923621178,0.012370011769235134,0.014660755172371864
1760898523607879700,9.459879638671875,-0.012522728182375431,0.008704823441803455,0.018325943499803543
1760898523617568300,9.469568359375,-0.012522728182375431,0.0001527161948615685,0.017104214057326317
1760898523627256800,9.4792568359375,-0.011300998739898205,-0.007177661173045635,0.012217295356094837
1760898523636945400,9.4889453125,-0.010079269297420979,-0.007177661173045635,0.008552107028663158
1760898523646634000,9.498634033203125,-0.007635809946805239,-0.004734201822429895,0.003665188793092966
1760898523656322600,9.508322509765625,-0.003970621153712273,-0.004734201822429895,-0.003665188793092966
1760898523666011100,9.51801123046875,-0.000305432389723137,-0.004734201822429895,-0.010995565913617611
1760898523675699700,9.52769970703125,0.0021380267571657896,-0.004734201822429895,-0.018325943499803543
1760898523685388300,9.53738818359375,0.0021380267571657896,-0.002290742937475443,-0.021991131827235222
1760898523695076900,9.547076904296874,-0.000305432389723137,-0.002290742937475443,-0.021991131827235222
1760898523704765400,9.556765380859375,0.0021380267571657896,-0.010842849500477314,-0.020769402384757996
1760898523714454000,9.5664541015625,0.003359756199643016,-0.018173227086663246,-0.021991131827235222
1760898523724142600,9.576142578125,0.0021380267571657896,-0.0206166859716177,-0.021991131827235222
1760898523733831200,9.5858310546875,-0.000305432389723137,-0.0206166859716177,-0.018325943499803543
1760898523743519700,9.595519775390626,-0.0027488914784044027,-0.015729768201708794,-0.010995565913617611
1760898523753208300,9.605208251953124,-0.005192350596189499,-0.008399390615522861,0.001221729558892548
1760898523762897000,9.61489697265625,-0.005192350596189499,0.0001527161948615685,0.012217295356094837
1760898523772585500,9.62458544921875,-0.006414080038666725,0.007483093533664942,0.018325943499803543
1760898523782274000,9.634274169921875,-0.005192350596189499,0.011148282326757908,0.01954767294228077
1760898523791963000,9.643962890625,0.0009162971982732415,0.009926552884280682,0.01588248461484909
1760898523801651500,9.6536513671875,0.007024944759905338,0.0038179049734026194,0.009773836471140385
1760898523811340000,9.663340087890624,0.010690134018659592,-0.003512472379952669,0.002443459117785096
1760898523821028600,9.673028564453125,0.011911863461136818,-0.008399390615522861,-0.004886918235570192
1760898523830717200,9.68271728515625,0.008246674202382565,-0.009621120058000088,-0.012217295356094837
1760898523840405800,9.69240576171875,0.0009162971982732415,-0.010842849500477314,-0.013439024798572063
1760898523850094300,9.70209423828125,-0.006414080038666725,-0.009621120058000088,-0.008552107028663158
1760898523859783000,9.711782958984376,-0.012522728182375431,-0.007177661173045635,-0.001221729558892548
1760898523869471500,9.721471435546874,-0.013744457624852657,-0.005955931730568409,0.006108647678047419
1760898523879160000,9.73116015625,-0.010079269297420979,-0.005955931730568409,0.007330377586185932
1760898523888848600,9.7408486328125,-0.003970621153712273,-0.008399390615522861,0.002443459117785096
1760898523898537200,9.750537109375,-0.000305432389723137,-0.013286309316754341,-0.003665188793092966
1760898523908225800,9.760225830078125,0.0009162971982732415,-0.015729768201708794,-0.008552107028663158
1760898523917914400,9.769914306640626,-0.0015271619195118546,-0.015729768201708794,-0.008552107028663158
1760898523927603000,9.77960302734375,-0.005192350596189499,-0.01206457894295454,-0.006108647678047419
1760898523937291500,9.78929150390625,-0.005192350596189499,-0.007177661173045635,-0.003665188793092966
1760898523946980000,9.79897998046875,-0.0015271619195118546,-0.005955931730568409,-0.006108647678047419
1760898523956668700,9.808668701171875,0.0021380267571657896,-0.004734201822429895,-0.010995565913617611
1760898523966357500,9.818357421875,0.0021380267571657896,-0.008399390615522861,-0.014660755172371864
1760898523976046000,9.828046142578126,0.0009162971982732415,-0.013286309316754341,-0.013439024798572063
1760898523985734400,9.837734375,-0.0015271619195118546,-0.013286309316754341,-0.009773836471140385
1760898523995423200,9.84742333984375,-0.000305432389723137,-0.008399390615522861,-0.006108647678047419
1760898524005111800,9.85711181640625,-0.000305432389723137,0.0001527161948615685,0
1760898524014800400,9.86680029296875,-0.0015271619195118546,0.008704823441803455,0.004886918235570192
1760898524024489000,9.876489013671875,-0.006414080038666725,0.01359174121171236,0.012217295356094837
1760898524034177500,9.886177490234376,-0.005192350596189499,0.01847865991294384,0.017104214057326317
1760898524043866000,9.8958662109375,-0.0027488914784044027,0.019700389355421066,0.020769402384757996
1760898524053554700,9.9055546875,-0.000305432389723137,0.020922118797898293,0.023212861269712448
1760898524063243300,9.9152431640625,0.0009162971982732415,0.019700389355421066,0.0256563201546669
1760898524072931800,9.924931884765625,0.0009162971982732415,0.019700389355421066,0.026878049597144127
1760898524082620400,9.934620361328125,0.0009162971982732415,0.019700389355421066,0.030543239787220955
1760898524092309000,9.94430908203125,-0.000305432389723137,0.01847865991294384,0.034208428114652634
1760898524101997600,9.95399755859375,0.0021380267571657896,0.017256930470466614,0.030543239787220955
1760898524111686100,9.96368603515625,0.007024944759905338,0.016035201027989388,0.018325943499803543
1760898524121374700,9.973374755859375,0.010690134018659592,0.014813470654189587,0.002443459117785096
1760898524131063600,9.9830634765625,0.010690134018659592,0.009926552884280682,-0.010995565913617611
1760898524140752100,9.992752197265625,0.004581485874950886,0.0013744457392022014,-0.014660755172371864
1760898524150440700,10.002440673828126,-0.005192350596189499,-0.003512472379952669,-0.012217295356094837
1760898524160129300,10.01212939453125,-0.013744457624852657,-0.004734201822429895,-0.008552107028663158
1760898524169817900,10.02181787109375,-0.01740964688360691,-0.004734201822429895,-0.003665188793092966
1760898524179506400,10.03150634765625,-0.013744457624852657,-0.005955931730568409,-0.003665188793092966
1760898524189195000,10.041195068359375,-0.007635809946805239,-0.010842849500477314,-0.007330377586185932
1760898524198883600,10.050883544921875,-0.000305432389723137,-0.01695149764418602,-0.010995565913617611
1760898524208572200,10.060572265625,0.003359756199643016,-0.015729768201708794,-0.014660755172371864
1760898524218260700,10.0702607421875,0.0009162971982732415,-0.009621120058000088,-0.014660755172371864
1760898524227949300,10.07994921875,-0.000305432389723137,-0.002290742937475443,-0.010995565913617611
1760898524237638000,10.089637939453125,-0.0027488914784044027,0.0038179049734026194,-0.006108647678047419
1760898524247326500,10.099326416015625,-0.003970621153712273,0.009926552884280682,0
1760898524257015000,10.10901513671875,-0.0015271619195118546,0.011148282326757908,0.004886918235570192
1760898524266704000,10.118703857421876,0.0021380267571657896,0.0062613640911877155,0.007330377586185932
1760898524276392400,10.128392333984374,0.004581485874950886,-0.002290742937475443,0.008552107028663158
1760898524286081000,10.1380810546875,0.008246674202382565,-0.005955931730568409,0.006108647678047419
1760898524295769600,10.14776953125,0.013133592903614044,-0.008399390615522861,0.003665188793092966
1760898524305458200,10.157458251953125,0.013133592903614044,-0.008399390615522861,0
1760898524315146800,10.167146728515625,0.00946840364485979,-0.008399390615522861,-0.003665188793092966
1760898524324835300,10.17683544921875,0.0021380267571657896,-0.007177661173045635,-0.004886918235570192
1760898524334524000,10.18652392578125,-0.003970621153712273,-0.005955931730568409,-0.008552107028663158
1760898524344212500,10.19621240234375,-0.010079269297420979,-0.007177661173045635,-0.012217295356094837
1760898524353901000,10.205901123046875,-0.012522728182375431,-0.008399390615522861,-0.013439024798572063
1760898524363589600,10.215589599609375,-0.010079269297420979,-0.009621120058000088,-0.013439024798572063
1760898524373278200,10.2252783203125,-0.006414080038666725,-0.009621120058000088,-0.013439024798572063
1760898524382967000,10.234967041015626,-0.000305432389723137,-0.008399390615522861,-0.014660755172371864
1760898524392655600,10.244655517578124,0.008246674202382565,-0.003512472379952669,-0.01954767294228077
1760898524402344200,10.25434423828125,0.013133592903614044,0.0013744457392022014,-0.021991131827235222
1760898524412032800,10.26403271484375,0.013133592903614044,0.0025961752980947495,-0.01588248461484909
1760898524421721300,10.273721435546875,0.007024944759905338,0.0062613640911877155,-0.004886918235570192
1760898524431410000,10.283409912109375,0.0009162971982732415,0.012370011769235134,0.006108647678047419
1760898524441098500,10.293098388671876,-0.006414080038666725,0.016035201027989388,0.014660755172371864
1760898524450787000,10.302787109375,-0.008857538923621178,0.019700389355421066,0.021991131827235222
1760898524460475600,10.3124755859375,-0.006414080038666725,0.020922118797898293,0.028099779039621353
1760898524470164200,10.322164306640625,-0.0027488914784044027,0.01847865991294384,0.034208428114652634
1760898524479852800,10.331852783203125,0.0009162971982732415,0.014813470654189587,0.034208428114652634
1760898524489541600,10.341541748046875,0.003359756199643016,0.012370011769235134,0.03298669680953026
1760898524499230200,10.351230224609376,0.005803215317428112,0.012370011769235134,0.028099779039621353
1760898524508918800,10.360918701171874,0.007024944759905338,0.012370011769235134,0.024434590712189674
1760898524518607400,10.370607421875,0.00946840364485979,0.0062613640911877155,0.020769402384757996
1760898524528296000,10.3802958984375,0.007024944759905338,0.0025961752980947495,0.01588248461484909
1760898524537984500,10.389984619140625,0.003359756199643016,0.0001527161948615685,0.004886918235570192
1760898524547673000,10.399673095703125,-0.0015271619195118546,-0.007177661173045635,-0.010995565913617611
1760898524557361700,10.409361572265626,-0.003970621153712273,-0.015729768201708794,-0.024434590712189674
1760898524567050200,10.41905029296875,-0.003970621153712273,-0.021838415414094925,-0.034208428114652634
1760898524576738800,10.42873876953125,-0.0027488914784044027,-0.025503603741526604,-0.03909534588456154
1760898524586427400,10.438427490234375,-0.005192350596189499,-0.02306014485657215,-0.04153880476951599
1760898524596116000,10.448115966796875,-0.006414080038666725,-0.019394956529140472,-0.03909534588456154
1760898524605804800,10.4578046875,-0.007635809946805239,-0.018173227086663246,-0.03176496922969818
1760898524615493400,10.467493408203126,-0.008857538923621178,-0.01695149764418602,-0.01954767294228077
1760898524625182000,10.477181884765624,-0.011300998739898205,-0.010842849500477314,-0.006108647678047419
1760898524634870500,10.48687060546875,-0.014966187067329884,-0.004734201822429895,0.010995565913617611
1760898524644559000,10.49655908203125,-0.01740964688360691,0.0062613640911877155,0.026878049597144127
1760898524654247700,10.50624755859375,-0.016187917441129684,0.016035201027989388,0.036651886999607086
1760898524663936300,10.515936279296875,-0.013744457624852657,0.02214384824037552,0.040317077189683914
1760898524673624800,10.525624755859376,-0.005192350596189499,0.023365577682852745,0.03543015569448471
1760898524683313400,10.5353134765625,0.005803215317428112,0.025809036567807198,0.023212861269712448
1760898524693002000,10.545001953125,0.01435532234609127,0.017256930470466614,0.006108647678047419
1760898524702690600,10.554690673828125,0.019242240116000175,0.0038179049734026194,-0.010995565913617611
1760898524712379400,10.56437939453125,0.019242240116000175,-0.008399390615522861,-0.024434590712189674
1760898524722068000,10.57406787109375,0.013133592903614044,-0.018173227086663246,-0.03176496922969818
1760898524731756500,10.583756591796876,0.005803215317428112,-0.0206166859716177,-0.03543015569448471
1760898524741445000,10.593445068359374,0.0009162971982732415,-0.014508038759231567,-0.034208428114652634
1760898524751133700,10.6031337890625,0.0021380267571657896,-0.005955931730568409,-0.03176496922969818
1760898524760822300,10.612822265625,0.008246674202382565,-0.0010690133785828948,-0.02932151034474373
1760898524770510800,10.6225107421875,0.015577051788568497,0.005039634648710489,-0.028099779039621353
1760898524780199400,10.632199462890625,0.0204639695584774,0.005039634648710489,-0.026878049597144127
1760898524789888000,10.641887939453126,0.021685699000954628,0.0001527161948615685,-0.021991131827235222
1760898524799576600,10.65157666015625,0.01802051067352295,-0.004734201822429895,-0.01588248461484909
1760898524809265400,10.661265380859374,0.010690134018659592,-0.009621120058000088,-0.012217295356094837
1760898524818954000,10.6709541015625,0.004581485874950886,-0.009621120058000088,-0.009773836471140385
1760898524828642600,10.680642578125,-0.000305432389723137,-0.003512472379952669,-0.006108647678047419
1760898524838331100,10.6903310546875,-0.0027488914784044027,0.0001527161948615685,-0.002443459117785096
1760898524848019700,10.700019775390626,-0.003970621153712273,0.0013744457392022014,0
1760898524857708300,10.709708251953124,-0.0027488914784044027,0.005039634648710489,0.002443459117785096
1760898524867396900,10.71939697265625,0.0009162971982732415,0.012370011769235134,0.004886918235570192
1760898524877085400,10.72908544921875,0.005803215317428112,0.017256930470466614,0.006108647678047419
1760898524886774000,10.73877392578125,0.008246674202382565,0.019700389355421066,0.007330377586185932
1760898524896462600,10.748462646484375,0.008246674202382565,0.01847865991294384,0.009773836471140385
1760898524906151400,10.7581513671875,0.008246674202382565,0.014813470654189587,0.009773836471140385
1760898524915840000,10.767840087890624,0.004581485874950886,0.007483093533664942,0.009773836471140385
1760898524925528600,10.777528564453124,-0.0015271619195118546,0.0025961752980947495,0.010995565913617611
1760898524935217200,10.787217041015625,-0.010079269297420979,-0.0010690133785828948,0.014660755172371864
1760898524944905700,10.79690576171875,-0.014966187067329884,-0.0010690133785828948,0.01954767294228077
1760898524954594300,10.80659423828125,-0.013744457624852657,0.0025961752980947495,0.021991131827235222
1760898524964283000,10.816282958984376,-0.005192350596189499,0.005039634648710489,0.01588248461484909
1760898524973971500,10.825971435546874,0.005803215317428112,0.0062613640911877155,0.001221729558892548
1760898524983660000,10.835659912109374,0.016798781231045723,0.0062613640911877155,-0.014660755172371864
1760898524993348900,10.845348876953125,0.0204639695584774,-0.002290742937475443,-0.024434590712189674
1760898525003037400,10.855037353515625,0.019242240116000175,-0.013286309316754341,-0.026878049597144127
1760898525012726000,10.86472607421875,0.010690134018659592,-0.014508038759231567,-0.023212861269712448
1760898525022414600,10.87441455078125,-0.003970621153712273,-0.008399390615522861,-0.017104214057326317
1760898525032103200,10.884103271484374,-0.012522728182375431,-0.002290742937475443,-0.007330377586185932
1760898525041791700,10.893791748046874,-0.012522728182375431,0.0001527161948615685,0
1760898525051480300,10.903480224609375,-0.011300998739898205,0.0025961752980947495,0.003665188793092966
1760898525061169000,10.9131689453125,-0.006414080038666725,0.0025961752980947495,0.003665188793092966
1760898525070857500,10.922857421875,0.003359756199643016,0.0013744457392022014,0.001221729558892548
1760898525080546300,10.93254638671875,0.011911863461136818,-0.0010690133785828948,-0.004886918235570192
1760898525090235000,10.94223486328125,0.016798781231045723,0.0001527161948615685,-0.009773836471140385
1760898525099923500,10.95192333984375,0.016798781231045723,0.0038179049734026194,-0.010995565913617611
1760898525109612000,10.961612060546875,0.013133592903614044,0.005039634648710489,-0.006108647678047419
1760898525119300600,10.971300537109375,0.005803215317428112,0.007483093533664942,0.001221729558892548
1760898525128989200,10.9809892578125,-0.000305432389723137,0.008704823441803455,0.010995565913617611
1760898525138677800,10.990677734375,-0.005192350596189499,0.011148282326757908,0.017104214057326317
1760898525148366300,11.000366455078124,-0.003970621153712273,0.01359174121171236,0.020769402384757996
1760898525158055200,11.01005517578125,0.0009162971982732415,0.009926552884280682,0.01954767294228077
1760898525167743700,11.01974365234375,0.005803215317428112,0.0038179049734026194,0.014660755172371864
1760898525177432300,11.029432373046875,0.004581485874950886,0.0038179049734026194,0.006108647678047419
1760898525187121000,11.039120849609375,-0.000305432389723137,0.0038179049734026194,-0.001221729558892548
1760898525196809500,11.0488095703125,-0.008857538923621178,0.0001527161948615685,-0.009773836471140385
1760898525206498000,11.058498046875,-0.01740964688360691,-0.002290742937475443,-0.013439024798572063
1760898525216186600,11.0681865234375,-0.02107483521103859,-0.004734201822429895,-0.013439024798572063
1760898525225875200,11.077875244140625,-0.02107483521103859,-0.007177661173045635,-0.008552107028663158
1760898525235563800,11.087563720703125,-0.016187917441129684,-0.008399390615522861,-0.003665188793092966
1760898525245252600,11.097252685546875,-0.012522728182375431,-0.005955931730568409,-0.001221729558892548
1760898525254941200,11.106941162109376,-0.008857538923621178,-0.002290742937475443,0
1760898525264629800,11.116629638671874,-0.006414080038666725,0.0013744457392022014,0.004886918235570192
1760898525274318300,11.126318359375,-0.006414080038666725,0.005039634648710489,0.008552107028663158
1760898525284007000,11.1360068359375,-0.005192350596189499,0.005039634648710489,0.008552107028663158
1760898525293695500,11.145695556640625,-0.0015271619195118546,0.0038179049734026194,0.007330377586185932
1760898525303384000,11.155384033203125,0.003359756199643016,-0.0010690133785828948,0.003665188793092966
1760898525313073000,11.165072998046876,0.008246674202382565,-0.002290742937475443,-0.003665188793092966
1760898525322761500,11.174761474609374,0.010690134018659592,-0.0010690133785828948,-0.012217295356094837
1760898525332450000,11.184449951171874,0.011911863461136818,-0.002290742937475443,-0.018325943499803543
1760898525342138600,11.194138671875,0.00946840364485979,-0.003512472379952669,-0.01954767294228077
1760898525351827200,11.2038271484375,0.00946840364485979,-0.002290742937475443,-0.014660755172371864
1760898525361515800,11.213515869140625,0.007024944759905338,0.0013744457392022014,-0.007330377586185932
1760898525371204400,11.223204345703126,0.004581485874950886,0.0062613640911877155,0.003665188793092966
1760898525380893200,11.23289306640625,-0.000305432389723137,0.009926552884280682,0.014660755172371864
1760898525390581800,11.242581787109375,-0.0015271619195118546,0.011148282326757908,0.021991131827235222
1760898525400270300,11.252270263671875,-0.000305432389723137,0.01359174121171236,0.024434590712189674
1760898525409959000,11.261958984375,0.004581485874950886,0.016035201027989388,0.020769402384757996
1760898525419647500,11.2716474609375,0.007024944759905338,0.009926552884280682,0.017104214057326317
1760898525429336000,11.281336181640626,0.008246674202382565,0.005039634648710489,0.013439024798572063
1760898525439024600,11.291024658203124,0.005803215317428112,0.005039634648710489,0.010995565913617611
1760898525448713200,11.300713134765624,-0.000305432389723137,0.008704823441803455,0.007330377586185932
1760898525458402000,11.310402099609375,-0.005192350596189499,0.011148282326757908,0.004886918235570192
1760898525468090600,11.320090576171875,-0.008857538923621178,0.008704823441803455,0.001221729558892548
1760898525477779200,11.329779296875,-0.008857538923621178,0.005039634648710489,-0.001221729558892548
1760898525487467800,11.3394677734375,-0.006414080038666725,0.005039634648710489,-0.002443459117785096
1760898525497156400,11.34915625,-0.003970621153712273,0.007483093533664942,0.002443459117785096
1760898525506845000,11.358844970703124,-0.0015271619195118546,0.008704823441803455,0.009773836471140385
1760898525516533800,11.36853369140625,0.0009162971982732415,0.01359174121171236,0.017104214057326317
1760898525526222300,11.378222412109375,0.0009162971982732415,0.01847865991294384,0.024434590712189674
1760898525535911000,11.387910888671875,-0.000305432389723137,0.017256930470466614,0.028099779039621353
1760898525545599500,11.397599609375,-0.0027488914784044027,0.014813470654189587,0.0256563201546669
1760898525555288000,11.4072880859375,-0.003970621153712273,0.011148282326757908,0.018325943499803543
1760898525564976600,11.4169765625,-0.003970621153712273,0.007483093533664942,0.007330377586185932
1760898525574665200,11.426665283203125,-0.0027488914784044027,0.0038179049734026194,-0.002443459117785096
1760898525584353800,11.436353759765625,0.0021380267571657896,0.0025961752980947495,-0.007330377586185932
1760898525594042400,11.44604248046875,0.010690134018659592,0.0013744457392022014,-0.008552107028663158
1760898525603731200,11.455731201171876,0.0204639695584774,0.0013744457392022014,-0.008552107028663158
1760898525613419800,11.465419677734374,0.022907428443431854,0.0038179049734026194,-0.008552107028663158
1760898525623108400,11.4751083984375,0.019242240116000175,0.008704823441803455,-0.003665188793092966
1760898525632797000,11.484796875,0.010690134018659592,0.012370011769235134,0.006108647678047419
1760898525642485500,11.494485595703125,0.0009162971982732415,0.012370011769235134,0.01588248461484909
1760898525652174300,11.50417431640625,-0.007635809946805239,0.011148282326757908,0.024434590712189674
1760898525661863000,11.51386279296875,-0.012522728182375431,0.007483093533664942,0.028099779039621353
1760898525671551500,11.523551513671874,-0.008857538923621178,0.0062613640911877155,0.024434590712189674
1760898525681240000,11.533239990234375,-0.0027488914784044027,0.0062613640911877155,0.014660755172371864
1760898525690928600,11.5429287109375,0.004581485874950886,0.0038179049734026194,0.004886918235570192
1760898525700617200,11.5526171875,0.007024944759905338,0.0013744457392022014,-0.002443459117785096
1760898525710305800,11.562305908203125,0.004581485874950886,0.0038179049734026194,-0.003665188793092966
1760898525719994400,11.571994384765626,-0.000305432389723137,0.008704823441803455,0
1760898525729683200,11.58168310546875,-0.005192350596189499,0.01359174121171236,0.004886918235570192
1760898525739371800,11.591371826171875,-0.006414080038666725,0.016035201027989388,0.010995565913617611
1760898525749060400,11.601060302734375,-0.003970621153712273,0.014813470654189587,0.01588248461484909
1760898525758749000,11.6107490234375,0.0009162971982732415,0.01359174121171236,0.018325943499803543
1760898525768437500,11.6204375,0.008246674202382565,0.012370011769235134,0.017104214057326317
1760898525778126000,11.6301259765625,0.015577051788568497,0.011148282326757908,0.010995565913617611
1760898525787815000,11.63981494140625,0.019242240116000175,0.011148282326757908,0.007330377586185932
1760898525797503500,11.64950341796875,0.016798781231045723,0.009926552884280682,0.004886918235570192
1760898525807192000,11.659192138671875,0.011911863461136818,0.007483093533664942,0.007330377586185932
1760898525816880600,11.668880615234375,0.004581485874950886,0.005039634648710489,0.009773836471140385
1760898525826569200,11.6785693359375,-0.000305432389723137,-0.0010690133785828948,0.008552107028663158
1760898525836257800,11.6882578125,-0.005192350596189499,-0.008399390615522861,0.002443459117785096
1760898525845946600,11.697946533203124,-0.005192350596189499,-0.01695149764418602,-0.007330377586185932
1760898525855635200,11.70763525390625,-0.0027488914784044027,-0.021838415414094925,-0.020769402384757996
1760898525865323800,11.71732373046875,-0.0015271619195118546,-0.024281874299049377,-0.030543239787220955
1760898525875012400,11.727012451171875,-0.0015271619195118546,-0.024281874299049377,-0.034208428114652634
1760898525884701000,11.736700927734375,-0.0027488914784044027,-0.025503603741526604,-0.03543015569448471
1760898525894389500,11.746389404296876,-0.0015271619195118546,-0.02306014485657215,-0.03298669680953026
1760898525904078300,11.756078369140624,-0.000305432389723137,-0.021838415414094925,-0.028099779039621353
1760898525913767000,11.765766845703125,-0.0015271619195118546,-0.018173227086663246,-0.021991131827235222
1760898525923455500,11.77545556640625,-0.003970621153712273,-0.015729768201708794,-0.013439024798572063
1760898525933144000,11.78514404296875,-0.006414080038666725,-0.013286309316754341,-0.003665188793092966
1760898525942832600,11.79483251953125,-0.008857538923621178,-0.008399390615522861,0.007330377586185932
1760898525952521200,11.804521240234376,-0.008857538923621178,-0.002290742937475443,0.013439024798572063
1760898525962210000,11.8142099609375,-0.005192350596189499,0.0025961752980947495,0.01588248461484909
1760898525971898600,11.823898681640625,-0.000305432389723137,0.005039634648710489,0.014660755172371864
1760898525981587200,11.833587158203125,0.007024944759905338,0.0013744457392022014,0.009773836471140385
1760898525991275800,11.84327587890625,0.01435532234609127,-0.002290742937475443,0
1760898526000964400,11.85296435546875,0.01802051067352295,-0.003512472379952669,-0.012217295356094837
