time,seconds_elapsed,z,y,x
1760903910567877000,0.235877197265625,1.6088651418685913,0.15699224174022675,0.33231043815612793
1760903910577566200,0.245566162109375,1.585652232170105,0.14599667489528656,0.3225366175174713
1760903910587255300,0.25525537109375,1.5832087993621826,0.1496618688106537,0.29565855860710144
1760903910596944400,0.2649443359375,1.5893174409866333,0.17043127119541168,0.2626718580722809
1760903910606633500,0.274633544921875,1.6003129482269287,0.205861434340477,0.2309068888425827
1760903910616322600,0.284322509765625,1.6210824251174927,0.23884813487529755,0.2052505612373352
1760903910626011600,0.29401171875,1.6455169916152954,0.24495677649974823,0.1905898153781891
1760903910635700700,0.30370068359375,1.6748385429382324,0.2254091054201126,0.19425499439239502
1760903910645389800,0.313389892578125,1.7090469598770142,0.20219624042510986,0.21868959069252014
1760903910655079200,0.3230791015625,1.74203360080719,0.17898337543010712,0.2528980076313019
1760903910664768300,0.332768310546875,1.770133376121521,0.15577052533626556,0.29565855860710144
1760903910674457300,0.342457275390625,1.7933462858200073,0.15088360011577606,0.3445277214050293
1760903910684146400,0.352146484375,1.8128939867019653,0.16798780858516693,0.3811796307563782
1760903910693835500,0.36183544921875,1.8348851203918457,0.1997527778148651,0.39828383922576904
1760903910703524600,0.371524658203125,1.8642065525054932,0.22174391150474548,0.4007273018360138
1760903910713213700,0.381213623046875,1.9020801782608032,0.22907429933547974,0.39828383922576904
1760903910722902800,0.39090283203125,1.94728422164917,0.2205221801996231,0.39217519760131836
1760903910732591900,0.400591796875,1.9961533546447754,0.19730933010578156,0.37751442193984985
1760903910742281000,0.410281005859375,2.0438008308410645,0.16554436087608337,0.3481929302215576
1760903910751970000,0.419969970703125,2.0938918590545654,0.1484401375055313,0.31154105067253113
1760903910761659100,0.4296591796875,2.1452043056488037,0.15088360011577606,0.27855435013771057
1760903910771348500,0.439348388671875,2.1867432594299316,0.16676609218120575,0.2467893660068512
1760903910781037600,0.44903759765625,2.213621139526367,0.19242240488529205,0.21258094906806946
1760903910790726700,0.4587265625,2.231947183609009,0.21807873249053955,0.17348559200763702
1760903910800415700,0.468415771484375,2.246608018875122,0.2205221801996231,0.12461641430854797
1760903910810104800,0.478104736328125,2.255160093307495,0.1948658674955368,0.06597339361906052
1760903910819794000,0.4877939453125,2.2649338245391846,0.14477495849132538,0.01588248461484909
1760903910829483000,0.49748291015625,2.2808163166046143,0.08613193035125732,-0.017104214057326317
1760903910839172000,0.507172119140625,2.294255495071411,0.031154103577136993,-0.0256563201546669
1760903910848861200,0.516861083984375,2.307694435119629,-0.023823726922273636,-0.01588248461484909
1760903910858550500,0.526550537109375,2.3174681663513184,-0.06291907280683517,0.010995565913617611
1760903910868239600,0.536239501953125,2.316246509552002,-0.05070177838206291,0.04520399495959282
1760903910877928700,0.5459287109375,2.307694435119629,0.007941242307424545,0.0769689604640007
1760903910887617800,0.55561767578125,2.302807569503784,0.08124501258134842,0.0977383628487587
1760903910897307000,0.565306884765625,2.31380295753479,0.1545487940311432,0.1026252806186676
1760903910906996000,0.574995849609375,2.344346284866333,0.21930044889450073,0.09529490768909454
1760903910916685000,0.58468505859375,2.3822200298309326,0.24984370172023773,0.08307760953903198
1760903910926374100,0.5943740234375,2.402989387512207,0.24373504519462585,0.06841685622930527
1760903910936063200,0.604063232421875,2.3932154178619385,0.21807873249053955,0.05253437161445618
1760903910945752300,0.61375244140625,2.352898359298706,0.20463970303535461,0.03543015569448471
1760903910955441400,0.62344140625,2.2869250774383545,0.19608759880065918,0.013439024798572063
1760903910965130500,0.633130615234375,2.2087342739105225,0.19242240488529205,-0.006108647678047419
1760903910974819800,0.64281982421875,2.1354305744171143,0.20463970303535461,-0.01588248461484909
1760903910984509000,0.652509033203125,2.0657920837402344,0.23762640357017517,-0.012217295356094837
1760903910994198000,0.662197998046875,2.00104022026062,0.268169641494751,0.002443459117785096
1760903911003887000,0.67188720703125,1.9326233863830566,0.28038692474365234,0.028099779039621353
1760903911013576200,0.681576171875,1.866650104522705,0.2864955961704254,0.05864302068948746
1760903911023265300,0.691265380859375,1.808007001876831,0.28527384996414185,0.08796452730894089
1760903911032954400,0.700954345703125,1.753029227256775,0.25473061203956604,0.11117739230394363
1760903911042643500,0.7106435546875,1.7053817510604858,0.21197007596492767,0.12095122784376144
1760903911052332500,0.72033251953125,1.6638429164886475,0.17898337543010712,0.10629047453403473
1760903911062021600,0.730021728515625,1.6296344995498657,0.16065743565559387,0.06963858753442764
1760903911071710700,0.739710693359375,1.605199933052063,0.17043127119541168,0.021991131827235222
1760903911081399800,0.74939990234375,1.575878381729126,0.20708316564559937,-0.03176496922969818
1760903911091089200,0.759089111328125,1.5318961143493652,0.25350889563560486,-0.07452550530433655
1760903911100778200,0.7687783203125,1.4756965637207031,0.30482152104377747,-0.09651663154363632
1760903911110467300,0.77846728515625,1.401171088218689,0.3451386094093323,-0.10995566099882126
1760903911120156400,0.788156494140625,1.3107631206512451,0.33536475896835327,-0.13927717506885529
1760903911129845500,0.797845458984375,1.216689944267273,0.25961753726005554,-0.20280711352825165
1760903911139534600,0.80753466796875,1.1507165431976318,0.14721840620040894,-0.3029889166355133
1760903911149223700,0.8172236328125,1.1604903936386108,0.037262752652168274,-0.41905322670936584
1760903911158912800,0.826912841796875,1.2680025100708008,-0.033597562462091446,-0.5131264328956604
1760903911168601900,0.836601806640625,1.4634792804718018,-0.043371398001909256,-0.5473348498344421
1760903911178291000,0.846291015625,1.7066035270690918,0.011606430634856224,-0.5070177912712097
1760903911187980000,0.85597998046875,1.9314017295837402,0.09468404203653336,-0.41905322670936584
1760903911197669400,0.86566943359375,2.0743441581726074,0.14477495849132538,-0.31520622968673706
1760903911207358500,0.8753583984375,2.09266996383667,0.12522727251052856,-0.23212862014770508
1760903911217047600,0.885047607421875,1.9900447130203247,0.06414080411195755,-0.19914191961288452
1760903911226736600,0.894736572265625,1.8128939867019653,-0.020158538594841957,-0.22968515753746033
1760903911236425700,0.90442578125,1.6186389923095703,-0.11667517572641373,-0.31031930446624756
1760903911246114800,0.91411474609375,1.4659227132797241,-0.1948658674955368,-0.41783151030540466
1760903911255804000,0.923803955078125,1.3877320289611816,-0.20708316564559937,-0.5180133581161499
1760903911265493000,0.933492919921875,1.3767365217208862,-0.15210533142089844,-0.5754346251487732
1760903911275182000,0.94318212890625,1.4182753562927246,-0.029932374134659767,-0.5534434914588928
1760903911284871200,0.95287109375,1.4854704141616821,0.1386663019657135,-0.43860089778900146
1760903911294560300,0.962560302734375,1.5599958896636963,0.2926042377948761,-0.25534147024154663
1760903911304249300,0.972249267578125,1.622304081916809,0.38179048895835876,-0.040317077189683914
1760903911313938400,0.9819384765625,1.6565126180648804,0.40255987644195557,0.17837251722812653
1760903911323627500,0.99162744140625,1.652847409248352,0.3805687427520752,0.37629270553588867
1760903911333316600,1.001316650390625,1.5990912914276123,0.33536475896835327,0.5253437161445618
1760903911343005700,1.011005615234375,1.5037963390350342,0.2864955961704254,0.6010909676551819
1760903911352695000,1.020695068359375,1.399949312210083,0.2412915825843811,0.5962040424346924
1760903911362384000,1.0303837890625,1.3180934190750122,0.18264856934547424,0.5094612240791321
1760903911372073200,1.0400732421875,1.271667718887329,0.1130099818110466,0.3591884970664978
1760903911381762300,1.04976220703125,1.271667718887329,0.05558869615197182,0.18814635276794434
1760903911391451400,1.059451416015625,1.3034327030181885,0.01649334840476513,0.03909534588456154
1760903911401140500,1.069140380859375,1.333975911140442,0.0054977829568088055,-0.06841685622930527
1760903911410829600,1.07882958984375,1.3400845527648926,0.029932374134659767,-0.12217295914888382
1760903911420518700,1.0885185546875,1.3168717622756958,0.07269290834665298,-0.1331685185432434
1760903911430207700,1.098207763671875,1.2765547037124634,0.10445787757635117,-0.12095122784376144
1760903911439896800,1.107896728515625,1.2289072275161743,0.10079269111156464,-0.1026252806186676
1760903911449586000,1.1175859375,1.1690424680709839,0.037262752652168274,-0.09529490768909454
1760903911459275000,1.12727490234375,1.0957386493682861,-0.06902772188186646,-0.09896009415388107
1760903911468964000,1.136964111328125,1.032208800315857,-0.16676609218120575,-0.09896009415388107
1760903911478653200,1.146653076171875,0.9894482493400574,-0.2254091054201126,-0.09407317638397217
1760903911488342300,1.15634228515625,0.9699005484580994,-0.258395791053772,-0.08796452730894089
1760903911498031400,1.16603125,0.97600919008255,-0.25961753726005554,-0.08429934084415436
1760903911507720400,1.175720458984375,1.0053306818008423,-0.205861434340477,-0.09162971377372742
1760903911517409500,1.185409423828125,1.059086799621582,-0.12156209349632263,-0.11484257876873016
1760903911527098600,1.1950986328125,1.1213949918746948,-0.01282816007733345,-0.15149445831775665
1760903911536787700,1.20478759765625,1.1653772592544556,0.10201441496610641,-0.1905898153781891
1760903911546476800,1.214476806640625,1.1592686176300049,0.16065743565559387,-0.20891575515270233
1760903911556166000,1.224165771484375,1.1140646934509277,0.1740964651107788,-0.19914191961288452
1760903911565855000,1.23385498046875,1.0468695163726807,0.17653992772102356,-0.17348559200763702
1760903911575544000,1.2435439453125,0.9589049816131592,0.16798780858516693,-0.14538581669330597
1760903911585233200,1.253233154296875,0.8697187304496765,0.15088360011577606,-0.11606431007385254
1760903911594922200,1.262922119140625,0.7964149713516235,0.14599667489528656,-0.07941242307424545
1760903911604611300,1.272611328125,0.7451022863388062,0.15088360011577606,-0.03787361457943916
1760903911614300700,1.28230078125,0.7072287201881409,0.16187916696071625,-0.004886918235570192
1760903911623989500,1.291989501953125,0.680350661277771,0.18142683804035187,0.010995565913617611
1760903911633678800,1.301678955078125,0.6632464528083801,0.20219624042510986,0.006108647678047419
1760903911643367700,1.31136767578125,0.6559160351753235,0.2205221801996231,-0.01954767294228077
1760903911653057000,1.32105712890625,0.6595812439918518,0.23273947834968567,-0.05497783049941063
1760903911662745900,1.330745849609375,0.6681333780288696,0.21441353857517242,-0.0818558782339096
1760903911672435200,1.340435302734375,0.6730202436447144,0.16187916696071625,-0.09162971377372742
1760903911682124000,1.3501240234375,0.6669116020202637,0.10201441496610641,-0.08552107214927673
1760903911691813400,1.3598134765625,0.6388118267059326,0.06536252796649933,-0.08552107214927673
1760903911701502200,1.369502197265625,0.5960513353347778,0.07269290834665298,-0.09896009415388107
1760903911711191600,1.379191650390625,0.5520690679550171,0.11911863088607788,-0.11728604137897491
1760903911720880400,1.38888037109375,0.5080868005752563,0.16798780858516693,-0.13561198115348816
1760903911730569700,1.39856982421875,0.4702131748199463,0.19608759880065918,-0.13927717506885529
1760903911740258600,1.408258544921875,0.45066550374031067,0.19364413619041443,-0.12095122784376144
1760903911749948000,1.417947998046875,0.4445568323135376,0.1740964651107788,-0.08307760953903198
1760903911759636700,1.42763671875,0.44700029492378235,0.164322629570961,-0.03787361457943916
1760903911769325800,1.437325927734375,0.4604393243789673,0.164322629570961,0.012217295356094837
1760903911779015000,1.447014892578125,0.48731738328933716,0.15699224174022675,0.07330377399921417
1760903911788704000,1.4567041015625,0.5203040838241577,0.1288924664258957,0.15271618962287903
1760903911798393000,1.46639306640625,0.539851725101471,0.09957095980644226,0.24312418699264526
1760903911808082200,1.476082275390625,0.5508472919464111,0.13133592903614044,0.3298669755458832
1760903911817771300,1.485771240234375,0.5447386503219604,0.2632827162742615,0.39217519760131836
1760903911827460400,1.49546044921875,0.5190823674201965,0.46608981490135193,0.411722868680954
1760903911837149400,1.5051494140625,0.4812087416648865,0.6847794055938721,0.3897317349910736
1760903911846838500,1.514838623046875,0.48365217447280884,0.9315688014030457,0.3652971386909485
1760903911856527600,1.524527587890625,0.670576810836792,1.2553271055221558,0.3848448097705841
1760903911866216700,1.534216796875,0.9320269227027893,1.434921383857727,0.3555232882499695
1760903911875905800,1.54390576171875,0.9870047569274902,1.1685843467712402,0.21746785938739777
1760903911885595000,1.553594970703125,1.0151045322418213,0.7250964641571045,0.08552107214927673
1760903911895284000,1.563283935546875,1.0835213661193848,0.39767298102378845,0.004886918235570192
1760903911904973000,1.57297314453125,1.1177297830581665,0.18631376326084137,-0.0513126403093338
1760903911914662100,1.582662109375,1.0957386493682861,-0.13500112295150757,-0.13439024984836578
1760903911924351200,1.592351318359375,1.0383174419403076,-0.3597993552684784,-0.19914191961288452
1760903911934040300,1.602040283203125,0.967457115650177,-0.3084867000579834,-0.16859868168830872
1760903911943729400,1.6117294921875,0.8819360136985779,-0.1802051067352295,-0.05864302068948746
1760903911953418500,1.62141845703125,0.7573196291923523,-0.1533270627260208,0.09896009415388107
1760903911963107600,1.631107666015625,0.54962557554245,-0.23273947834968567,0.26511532068252563
1760903911972796700,1.640796630859375,0.3822486400604248,-0.2877173125743866,0.42271843552589417
1760903911982485800,1.65048583984375,0.2759581506252289,-0.30482152104377747,0.5351175665855408
1760903911992174800,1.6601748046875,0.1562286615371704,-0.3964512348175049,0.5632173418998718
1760903912001864000,1.669864013671875,0.03527744114398956,-0.5772672295570374,0.5277871489524841
1760903912011553000,1.679552978515625,-0.049021899700164795,-0.7837395071983337,0.46425724029541016
1760903912021241900,1.689241943359375,-0.06612611562013626,-0.9303470849990845,0.39339691400527954
1760903912030931000,1.698930908203125,0.014508038759231567,-0.998763918876648,0.3176496922969818
1760903912040620000,1.7086201171875,0.21609342098236084,-0.7874047160148621,0.2968802750110626
1760903912050309000,1.71830908203125,0.5031998753547668,0.07024945318698883,0.4056142270565033
1760903912059998200,1.727998291015625,0.7695369124412537,0.9926552772521973,0.4972439408302307
1760903912069687300,1.737687255859375,0.9564615488052368,1.5289945602416992,0.5045742988586426
1760903912079376400,1.74737646484375,1.00288724899292,1.3176352977752686,0.411722868680954
1760903912089065500,1.7570654296875,0.8025236129760742,-0.03237583488225937,0.21746785938739777
1760903912098754600,1.766754638671875,0.44577857851982117,-1.4813470840454102,0.06352993845939636
1760903912108443600,1.776443603515625,0.1611155867576599,-1.905287265777588,0.07330377399921417
1760903912118132700,1.7861328125,-0.042913250625133514,-1.6316198110580444,0.16126830875873566
1760903912127821800,1.79582177734375,-0.23472478985786438,-1.2431098222732544,0.22235478460788727
1760903912137510700,1.8055107421875,-0.38499751687049866,-0.9327905178070068,0.19914191961288452
1760903912147199700,1.81519970703125,-0.45219266414642334,-0.6432406306266785,0.10506874322891235
1760903912156888800,1.824888916015625,-0.4448622763156891,-0.30482152104377747,-0.034208428114652634
1760903912166578000,1.834577880859375,-0.40088000893592834,0.06902772188186646,-0.2052505612373352
1760903912176267000,1.84426708984375,-0.32879796624183655,0.4001164436340332,-0.370184063911438
1760903912185956000,1.8539560546875,-0.24572035670280457,0.6310232877731323,-0.4984656572341919
1760903912195645200,1.863645263671875,-0.1663079410791397,0.7409789562225342,-0.6059778332710266
1760903912205334300,1.873334228515625,-0.1308777779340744,0.6774490475654602,-0.6963858604431152
1760903912215023400,1.8830234375,-0.1516471803188324,0.46608981490135193,-0.748920202255249
1760903912224712400,1.89271240234375,-0.1980729103088379,0.2412915825843811,-0.7550288438796997
1760903912234401300,1.9024013671875,-0.20173808932304382,0.13744457066059113,-0.7623592615127563
1760903912244090400,1.91209033203125,-0.18829907476902008,0.21441353857517242,-0.7843503952026367
1760903912253779500,1.921779541015625,-0.17486004531383514,0.4868592321872711,-0.7611374855041504
1760903912263468500,1.931468505859375,-0.212733656167984,0.7886264324188232,-0.5925388336181641
1760903912273157600,1.94115771484375,-0.29703301191329956,0.8680388331413269,-0.3176496922969818
1760903912282846700,1.9508466796875,-0.38011062145233154,0.6163625717163086,-0.14172062277793884
1760903912292535800,1.960535888671875,-0.43142324686050415,0.3243691921234131,-0.08429934084415436
1760903912302225000,1.970224853515625,-0.4326449930667877,0.2510654330253601,-0.05253437161445618
1760903912311913700,1.979913818359375,-0.4082103967666626,0.3084867000579834,-0.040317077189683914
1760903912321602800,1.989602783203125,-0.36911505460739136,0.37323838472366333,-0.021991131827235222
1760903912331292000,1.9992919921875,-0.3361283540725708,0.4355465769767761,0.06597339361906052
1760903912340981000,2.00898095703125,-0.33979353308677673,0.47464191913604736,0.1905898153781891
1760903912350670000,2.018670166015625,-0.3556760251522064,0.4379900395870209,0.3078758418560028
1760903912360359200,2.028359130859375,-0.36544984579086304,0.3084867000579834,0.4263836145401001
1760903912370048000,2.038048095703125,-0.3972148299217224,0.06780599057674408,0.48991355299949646
1760903912379737000,2.047737060546875,-0.4338667094707489,-0.22418737411499023,0.5143481492996216
1760903912389426200,2.05742626953125,-0.44608399271965027,-0.45998117327690125,0.5253437161445618
1760903912399115300,2.067115234375,-0.4326449930667877,-0.5503891706466675,0.4789179861545563
1760903912408804400,2.076804443359375,-0.41187557578086853,-0.4453204274177551,0.3494146466255188
1760903912418493400,2.086493408203125,-0.4143190383911133,-0.22785256803035736,0.18203771114349365
1760903912428182300,2.096182373046875,-0.45097091794013977,-0.0054977829568088055,0.03298669680953026
1760903912437871400,2.105871337890625,-0.5181660652160645,0.15699224174022675,-0.046425722539424896
1760903912447560400,2.115560546875,-0.624456524848938,0.16554436087608337,-0.03909534588456154
1760903912457249500,2.12524951171875,-0.7515164017677307,0.004276053514331579,0.020769402384757996
1760903912466938600,2.134938720703125,-0.8785762786865234,-0.20341797173023224,0.0769689604640007
1760903912476627700,2.144627685546875,-0.9897536635398865,-0.27550002932548523,0.07452550530433655
1760903912486316500,2.154316650390625,-1.0471749305725098,-0.143553227186203,0.03176496922969818
1760903912496005600,2.164005615234375,-1.0569487810134888,0.11423171311616898,-0.020769402384757996
1760903912505694700,2.17369482421875,-1.1473567485809326,0.43432486057281494,-0.15271618962287903
1760903912515383800,2.1833837890625,-1.2402082681655884,0.7666352987289429,-0.2932150959968567
1760903912525073000,2.193072998046875,-1.2304344177246094,0.8790343999862671,-0.2883281707763672
1760903912534762000,2.202761962890625,-1.1302525997161865,0.7568614482879639,-0.16615521907806396
1760903912544450800,2.212450927734375,-0.9140064120292664,0.4379900395870209,0.03909534588456154
1760903912554140000,2.222139892578125,-0.6818777918815613,0.10323614627122879,0.2101374864578247
1760903912563829000,2.2318291015625,-0.5279398560523987,-0.03237583488225937,0.2419024556875229
1760903912573518000,2.24151806640625,-0.4289797842502594,0.015271619893610477,0.1905898153781891
1760903912583207200,2.251207275390625,-0.37522369623184204,0.16065743565559387,0.06108647957444191
1760903912592896300,2.260896240234375,-0.41554075479507446,0.2522871494293213,-0.10140355676412582
1760903912602585000,2.270585205078125,-0.5096139311790466,0.2522871494293213,-0.23945899307727814
1760903912612274200,2.280274169921875,-0.5939132571220398,0.1740964651107788,-0.3176496922969818
1760903912621963300,2.28996337890625,-0.6513345837593079,0.09468404203653336,-0.2932150959968567
1760903912631652400,2.29965234375,-0.6904299259185791,0.031154103577136993,-0.14660754799842834
1760903912641341200,2.309341064453125,-0.7197514176368713,0.031154103577136993,0.08307760953903198
1760903912651030300,2.3190302734375,-0.7319687008857727,0.09834922850131989,0.33108872175216675
1760903912660719400,2.32871923828125,-0.7283035516738892,0.18264856934547424,0.5534434914588928
1760903912670408400,2.338408447265625,-0.7148644924163818,0.2889390289783478,0.7318159937858582
1760903912680097500,2.34809765625,-0.7209731340408325,0.3854556679725647,0.8454368710517883
1760903912689786400,2.357786376953125,-0.7148644924163818,0.46608981490135193,0.8478803038597107
1760903912699475500,2.367475341796875,-0.652556300163269,0.6053670048713684,0.7513636946678162
1760903912709164500,2.37716455078125,-0.5633700489997864,0.721431314945221,0.6023126840591431
1760903912718853600,2.386853515625,-0.5792525410652161,0.7055488228797913,0.5094612240791321
1760903912728542500,2.39654248046875,-0.7307469844818115,0.43310311436653137,0.5778780579566956
1760903912738231600,2.4062314453125,-0.8712459206581116,0.12400554865598679,0.5485565662384033
1760903912747920600,2.415920654296875,-0.8248201608657837,0.13622283935546875,0.3225366175174713
1760903912757609700,2.425609619140625,-0.7625119686126709,0.2974911332130432,0.07330377399921417
1760903912767298600,2.435298583984375,-0.7124210596084595,0.49418962001800537,-0.07452550530433655
1760903912776987600,2.444987548828125,-0.6452259421348572,0.7458658814430237,-0.17104214429855347
1760903912786676700,2.4546767578125,-0.6036871075630188,1.0305289030075073,-0.22479823231697083
1760903912796365800,2.46436572265625,-0.5914698243141174,1.3457350730895996,-0.12217295914888382
1760903912806054700,2.4740546875,-0.6403390169143677,1.554650902748108,0.20402882993221283
1760903912815743700,2.48374365234375,-0.7185297012329102,1.4581341743469238,0.6963858604431152
1760903912825432800,2.493432861328125,-0.8223767280578613,1.0390809774398804,1.2400555610656738
1760903912835122000,2.503121826171875,-1.0154099464416504,0.40744680166244507,1.7434080839157104
1760903912844810800,2.512810791015625,-1.218217134475708,-0.205861434340477,2.1025965213775635
1760903912854499800,2.522499755859375,-1.3697115182876587,-0.5577195286750793,2.2333216667175293
1760903912864189000,2.53218896484375,-1.3892592191696167,-0.7385355234146118,2.1807873249053955
1760903912873878000,2.5418779296875,-1.3196206092834473,-0.8008437156677246,1.9767584800720215
1760903912883566800,2.55156689453125,-1.3672680854797363,-0.7739656567573547,1.635895848274231
1760903912893256000,2.561255859375,-1.3513855934143066,-0.8203914165496826,1.2742639780044556
1760903912912634000,2.580634033203125,-0.9763146042823792,-1.5460987091064453,0.6768381595611572
1760903912922323000,2.590322998046875,-0.7515164017677307,-2.0127995014190674,0.5204567909240723
1760903912932012000,2.600011962890625,-0.4802924394607544,-2.5185954570770264,0.3897317349910736
1760903912941701000,2.609701171875,-0.21151192486286163,-2.964526891708374,0.1795942485332489
1760903912951390200,2.61939013671875,-0.027030766010284424,-2.66275954246521,-0.15027274191379547
1760903912961079000,2.6290791015625,0.268627792596817,-1.7928881645202637,-0.4068359434604645
1760903912970768100,2.63876806640625,0.4066832363605499,-0.7165443897247314,-0.48502662777900696
1760903912980457200,2.648457275390625,0.3162752389907837,-0.05070177838206291,-0.3799578845500946
1760903912990146300,2.658146240234375,0.12690715491771698,0.22296564280986786,-0.22479823231697083
1760903912999835100,2.667835205078125,-0.04413498193025589,0.20952661335468292,-0.1026252806186676
1760903913009524200,2.677524169921875,-0.1259908676147461,0.08613193035125732,-0.04764745384454727
1760903913019213300,2.68721337890625,-0.11988221108913422,0.08491020649671555,-0.05497783049941063
1760903913038591200,2.70659130859375,0.08292489498853683,0.3426951467990875,-0.0720820426940918
1760903913048280300,2.7162802734375,0.22953243553638458,0.38179048895835876,-0.06108647957444191
1760903913067658200,2.735658203125,0.425009161233902,0.10934479534626007,-0.056199558079242706
1760903913077347300,2.745347412109375,0.4555523991584778,-0.000610864779446274,-0.08429934084415436
1760903913087036400,2.755036376953125,0.5093085169792175,-0.03848448023200035,-0.07452550530433655
1760903913096725200,2.764725341796875,0.5789470672607422,-0.02260199747979641,-0.026878049597144127
1760903913106414300,2.774414306640625,0.6559160351753235,0.01649334840476513,0.05864302068948746
1760903913116103400,2.784103515625,0.7279980778694153,0.056810423731803894,0.18203771114349365
1760903913125792300,2.793792236328125,0.763428270816803,0.08979712426662445,0.33719736337661743
1760903913135481300,2.8034814453125,0.7524327039718628,0.09346231073141098,0.5290089249610901
1760903913145170400,2.81317041015625,0.7047852277755737,0.05558869615197182,0.7562506198883057
1760903913154859500,2.822859619140625,0.6351466774940491,0.015271619893610477,1.0030399560928345
1760903913164548400,2.83254833984375,0.5667297840118408,-0.004276053514331579,1.2302817106246948
1760903913174237400,2.842237548828125,0.5093085169792175,-0.01649334840476513,1.3964369297027588
1760903913183926500,2.851926513671875,0.42745262384414673,0.02260199747979641,1.4648537635803223
1760903913193615600,2.86161572265625,0.3016144931316376,0.15210533142089844,1.4098758697509766
1760903913203304400,2.871304443359375,0.1623373180627823,0.39400777220726013,1.2302817106246948
1760903913212993500,2.88099365234375,0.08170316368341446,0.7275399565696716,0.943175196647644
1760903913222682600,2.8906826171875,0.11591159552335739,1.045189619064331,0.5864301919937134
1760903913232371500,2.900371337890625,0.24297146499156952,1.2064579725265503,0.23212862014770508
1760903913242060500,2.910060546875,0.4335612654685974,1.1588104963302612,-0.08552107214927673
1760903913251749600,2.91974951171875,0.670576810836792,0.9926552772521973,-0.318871408700943
1760903913261438500,2.9294384765625,0.9418007731437683,0.8631519079208374,-0.41905322670936584
1760903913271127600,2.93912744140625,1.226463794708252,0.8814778923988342,-0.42271843552589417
1760903913280816600,2.948816650390625,1.4329360723495483,1.01708984375,-0.3396408259868622
1760903913290505700,2.958505615234375,1.4952442646026611,1.1221586465835571,-0.2162461280822754
1760903913300194600,2.968194580078125,1.4256056547164917,1.0952805280685425,-0.09285144507884979
1760903913309883600,2.977883544921875,1.254563570022583,0.9865466356277466,0.006108647678047419
1760903913319572500,2.987572509765625,1.039539098739624,0.8155044913291931,0.04276053607463837
1760903913329261600,2.997261474609375,0.8135191798210144,0.5748237371444702,-0.021991131827235222
1760903913338950700,3.00695068359375,0.5349648594856262,0.28038692474365234,-0.2260199636220932
1760903913348639700,3.0166396484375,0.21120649576187134,-0.12034036219120026,-0.5253437161445618
1760903913358328600,3.02632861328125,0.021838415414094925,-0.5943714380264282,-0.8271108865737915
1760903913368017700,3.036017578125,0.009621120058000088,-0.9291253089904785,-1.0592395067214966
1760903913377706800,3.045706787109375,0.10980294644832611,-0.9755510687828064,-1.1814124584197998
1760903913387395600,3.0553955078125,0.2698495090007782,-0.8570432662963867,-1.2046253681182861
1760903913397084700,3.065084716796875,0.41157013177871704,-0.7849612236022949,-1.1117738485336304
1760903913406773800,3.074773681640625,0.4995346665382385,-0.7018836140632629,-0.934623122215271
1760903913416462600,3.084462646484375,0.5031998753547668,-0.5613847374916077,-0.7244856357574463
1760903913426151700,3.094151611328125,0.4176788032054901,-0.4147771894931793,-0.5119046568870544
1760903913435840800,3.1038408203125,0.258853942155838,-0.26939135789871216,-0.3237583339214325
1760903913445529600,3.113529541015625,0.07070759683847427,-0.13500112295150757,-0.17837251722812653
1760903913455218700,3.12321875,-0.08689551800489426,-0.06414080411195755,-0.08796452730894089
1760903913464907800,3.13290771484375,-0.1931859850883484,-0.06047561392188072,-0.059864748269319534
1760903913474596600,3.1425966796875,-0.2542724609375,-0.10079269111156464,-0.07941242307424545
1760903913484285700,3.15228564453125,-0.2750418782234192,-0.15699224174022675,-0.1233946830034256
1760903913493974800,3.161974853515625,-0.25182899832725525,-0.20463970303535461,-0.18203771114349365
1760903913503663600,3.17166357421875,-0.1980729103088379,-0.2205221801996231,-0.2370155304670334
1760903913513352700,3.181352783203125,-0.12110394239425659,-0.1997527778148651,-0.26389357447624207
1760903913523041800,3.191041748046875,-0.039248060435056686,-0.1899789422750473,-0.2761108875274658
1760903913532730600,3.200730712890625,0.031612250953912735,-0.27550002932548523,-0.2932150959968567
1760903913542419700,3.210419677734375,0.07315105944871902,-0.39278605580329895,-0.3176496922969818
1760903913552108800,3.22010888671875,0.07192932814359665,-0.4172206521034241,-0.3494146466255188
1760903913561797600,3.229797607421875,0.051159925758838654,-0.31581708788871765,-0.3946186602115631
1760903913571486700,3.23948681640625,0.04627300798892975,-0.1337793916463852,-0.4422661066055298
1760903913581175800,3.24917578125,0.060933761298656464,0.08613193035125732,-0.44837474822998047
1760903913590864600,3.25886474609375,0.07559451460838318,0.24740023910999298,-0.3970620930194855
1760903913600553700,3.2685537109375,0.06215549260377884,0.29993459582328796,-0.31031930446624756
1760903913610242800,3.278242919921875,0.01206457894295454,0.2889390289783478,-0.22357651591300964
1760903913619931600,3.287931640625,-0.08078686892986298,0.01893680728971958,-0.2309068888425827
1760903913629620700,3.297620849609375,-0.17363831400871277,-0.3072649836540222,-0.32009315490722656
1760903913639309600,3.3073095703125,-0.22006404399871826,-0.4465421438217163,-0.39828383922576904
1760903913648998700,3.31699853515625,-0.20662501454353333,-0.3243691921234131,-0.4324922561645508
1760903913658687700,3.326687744140625,-0.1516471803188324,-0.056810423731803894,-0.4251618981361389
1760903913668376600,3.33637646484375,-0.0844520553946495,0.25350889563560486,-0.38728827238082886
1760903913678065700,3.346065673828125,-0.04780016839504242,0.4367683231830597,-0.34697118401527405
1760903913687754800,3.355754638671875,-0.03436114266514778,0.3549124300479889,-0.32009315490722656
1760903913697443600,3.365443603515625,-0.01847865991294384,0.10567960888147354,-0.30543237924575806
1760903913707132700,3.375132568359375,-0.008704823441803455,-0.2254091054201126,-0.2932150959968567
1760903913716821800,3.38482177734375,-0.009926552884280682,-0.5760455131530762,-0.27488914132118225
1760903913726510600,3.394510498046875,-0.03191768378019333,-0.850934624671936,-0.23823726177215576
1760903913736199700,3.40419970703125,-0.06490438431501389,-0.9816597104072571,-0.1844811588525772
1760903913745888500,3.413888427734375,-0.08078686892986298,-0.9511164426803589,-0.13072505593299866
1760903913755577600,3.42357763671875,-0.06368265300989151,-0.813060998916626,-0.09162971377372742
1760903913774955500,3.44295556640625,0.027947064489126205,-0.37323838472366333,-0.08552107214927673
1760903913784644600,3.45264453125,0.07070759683847427,-0.21807873249053955,-0.11972949653863907
1760903913794333700,3.462333740234375,0.09392046183347702,-0.19120067358016968,-0.15760311484336853
1760903913813711600,3.481711669921875,0.08170316368341446,-0.4563159942626953,-0.13927717506885529
1760903913823400700,3.491400634765625,0.0743727833032608,-0.6701186895370483,-0.06597339361906052
1760903913833089500,3.501089599609375,0.05971203371882439,-0.8863648176193237,0.030543239787220955
1760903913842778600,3.510778564453125,0.02672533318400383,-1.0317505598068237,0.11484257876873016
1760903913852467700,3.5204677734375,-0.012370011769235134,-1.05496346950531,0.1747073233127594
1760903913862156500,3.530156494140625,-0.03558287397027016,-0.9669989347457886,0.1905898153781891
1760903913871845600,3.539845703125,-0.05024362727999687,-0.8252783417701721,0.22968515753746033
1760903913881534500,3.549534423828125,-0.027030766010284424,-0.7043271064758301,0.2724456787109375
1760903913891223600,3.5592236328125,0.010842849500477314,-0.5797106623649597,0.2932150959968567
1760903913900912600,3.56891259765625,0.04260781779885292,-0.4612029194831848,0.2919933497905731
1760903913910601500,3.5786015625,0.024281874299049377,-0.36835145950317383,0.27977606654167175
1760903913920290600,3.58829052734375,-0.05024362727999687,-0.30970844626426697,0.24801109731197357
1760903913929979400,3.5979794921875,-0.1406516134738922,-0.38789913058280945,0.17715078592300415
1760903913939668500,3.60766845703125,-0.2237292230129242,-0.5088503360748291,0.09162971377372742
1760903913949357600,3.617357666015625,-0.29214608669281006,-0.5540543794631958,0.030543239787220955
1760903913959046400,3.62704638671875,-0.38499751687049866,-0.4880809485912323,0.03909534588456154
1760903913968735500,3.636735595703125,-0.5242747068405151,-0.33169957995414734,0.1649334877729416
1760903913978424600,3.646424560546875,-0.6513345837593079,-0.09712749719619751,0.40805765986442566
1760903913988113400,3.656113525390625,-0.7209731340408325,0.10323614627122879,0.6841685771942139
1760903913997802500,3.665802490234375,-0.7417425513267517,0.20952661335468292,0.9272927641868591
1760903914007491300,3.6754912109375,-0.7441860437393188,0.2730565667152405,1.0848958492279053
1760903914026869500,3.694869384765625,-0.6794343590736389,0.43310311436653137,0.9920443892478943
1760903914036558300,3.704558349609375,-0.5963567495346069,0.5613847374916077,0.794124186038971
1760903914046247400,3.714247314453125,-0.5242747068405151,0.6652317643165588,0.5888736248016357
1760903914055936500,3.7239365234375,-0.5071704983711243,0.7250964641571045,0.37140578031539917
1760903914065625300,3.733625244140625,-0.5389354228973389,0.7531962990760803,0.15027274191379547
1760903914075314400,3.743314453125,-0.5621483325958252,0.7177661061286926,-0.0513126403093338
1760903914085003300,3.753003173828125,-0.4839576184749603,0.5955931544303894,-0.20647229254245758
1760903914094692400,3.7626923828125,-0.3862192630767822,0.5064069032669067,-0.3176496922969818
1760903914114070300,3.7820703125,-0.3043633699417114,0.6517927050590515,-0.39828383922576904
1760903914123759400,3.79175927734375,-0.29336780309677124,0.758083164691925,-0.36285367608070374
1760903914133448200,3.8014482421875,-0.2945895493030548,0.832608699798584,-0.30054548382759094
1760903914143137300,3.81113720703125,-0.3092502951622009,0.8973603844642639,-0.23212862014770508
1760903914152826400,3.820826416015625,-0.32879796624183655,0.963333785533905,-0.16859868168830872
1760903914172204300,3.840204345703125,-0.34345871210098267,1.026863694190979,-0.06719512492418289
1760903914181893000,3.84989306640625,-0.3214675784111023,0.9657772183418274,-0.01954767294228077
1760903914191582200,3.859582275390625,-0.2750418782234192,0.8460476994514465,0.03298669680953026
1760903914201271300,3.869271240234375,-0.20540328323841095,0.6835576891899109,0.10140355676412582
1760903914210960100,3.878960205078125,-0.12721258401870728,0.5296197533607483,0.18081597983837128
1760903914220649200,3.888649169921875,-0.049021899700164795,0.40744680166244507,0.2614501118659973
1760903914230338000,3.898338134765625,0.024281874299049377,0.30482152104377747,0.3384190797805786
1760903914240027100,3.908027099609375,0.08048143237829208,0.2730565667152405,0.401949018239975
1760903914249716200,3.91771630859375,0.10980294644832611,0.36712974309921265,0.44470956921577454
1760903914259405000,3.927405029296875,0.11957678198814392,0.5393936038017273,0.4557051360607147
1760903914269094100,3.93709423828125,0.13423752784729004,0.6725621223449707,0.41783151030540466
1760903914288472000,3.95647216796875,0.3358229100704193,0.6554579138755798,0.1795942485332489
1760903914298161200,3.9661611328125,0.5227475166320801,0.535728394985199,0.034208428114652634
1760903914307850000,3.97585009765625,0.69012451171875,0.19242240488529205,-0.06597339361906052
1760903914317539000,3.9855390625,0.8122974634170532,-0.3231474757194519,-0.14172062277793884
1760903914327228000,3.995227783203125,0.8135191798210144,-0.8118392825126648,-0.17837251722812653
1760903914336917000,4.0049169921875,0.7047852277755737,-1.1233803033828735,-0.14294235408306122
1760903914346606000,4.014606201171875,0.5105302333831787,-1.211344838142395,-0.07086031138896942
1760903914356295000,4.024294921875,0.2698495090007782,-1.1184934377670288,0.03176496922969818
1760903914365984000,4.03398388671875,0.02306014485657215,-0.9107993841171265,0.15638138353824615
1760903914375672800,4.0436728515625,-0.19562944769859314,-0.6041452884674072,0.277332603931427
1760903914385362000,4.05336181640625,-0.3727802336215973,-0.2156352698802948,0.38240134716033936
1760903914395050800,4.06305078125,-0.5083922147750854,0.1948658674955368,0.48502662777900696
1760903914404739800,4.07273974609375,-0.6061305999755859,0.565049946308136,0.6047561168670654
1760903914414429000,4.082428955078125,-0.6843212842941284,0.9107993841171265,0.7574723362922668
1760903914424117800,4.09211767578125,-0.7405208349227905,1.3139700889587402,0.9187406301498413
1760903914433806800,4.101806884765625,-0.7283035516738892,1.7513493299484253,1.0482439994812012
1760903914443496000,4.111495849609375,-0.5242747068405151,2.0384557247161865,1.102000117301941
1760903914453184800,4.121184814453125,-0.036804601550102234,1.990808367729187,0.9932661056518555
1760903914462873900,4.130873779296875,0.5251910090446472,1.8759657144546509,0.711046576499939
1760903914472562700,4.140562744140625,0.855057954788208,1.7366886138916016,0.3335321843624115
1760903914482251800,4.150251708984375,0.9149227142333984,1.453247308731079,-0.03787361457943916
1760903914491940600,4.159940673828125,0.8880446553230286,1.339626431465149,-0.36651885509490967
1760903914501629700,4.169629638671875,0.8990402221679688,1.5277727842330933,-0.6817250847816467
1760903914511318800,4.17931884765625,0.9870047569274902,1.719584345817566,-0.9492838382720947
1760903914521007600,4.189007568359375,1.070082426071167,1.9004002809524536,-1.120326042175293
1760903914530696700,4.19869677734375,1.0725258588790894,2.1117594242095947,-1.1740821599960327
1760903914540385500,4.208385498046875,0.9699005484580994,2.2950189113616943,-1.0861176252365112
1760903914550074600,4.21807470703125,0.7939714789390564,2.375653028488159,-0.8808670043945312
1760903914559763700,4.227763671875,0.6131555438041687,2.369544506072998,-0.5888736248016357
1760903914569452500,4.23745263671875,0.46166107058525085,2.263253927230835,-0.2761108875274658
1760903914579141600,4.2471416015625,0.34437501430511475,1.9175045490264893,-0.03543015569448471
1760903914588830700,4.256830810546875,0.27717989683151245,1.4935643672943115,0.07819069176912308
1760903914598519600,4.26651953125,0.2503018379211426,1.2089014053344727,0.036651886999607086
1760903914617897500,4.2858974609375,0.43600472807884216,1.163697361946106,-0.3347539007663727
1760903914637275600,4.305275634765625,0.7365502119064331,1.6548327207565308,-0.47525280714035034
1760903914646964500,4.314964599609375,0.7670934200286865,1.8674136400222778,-0.3530798554420471
1760903914656653600,4.324653564453125,0.6681333780288696,2.0079126358032227,-0.1698204129934311
1760903914666342400,4.33434228515625,0.48243045806884766,1.9382739067077637,-0.007330377586185932
1760903914676031500,4.344031494140625,0.26129740476608276,1.0879502296447754,0.007330377586185932
1760903914685720600,4.353720458984375,0.07803797721862793,0.09590577334165573,-0.07330377399921417
1760903914695409400,4.363409423828125,0.04505127668380737,-0.22418737411499023,-0.10018182545900345
1760903914705098500,4.373098388671875,0.15989385545253754,-0.14477495849132538,-0.03298669680953026
1760903914714787300,4.382787353515625,0.2759581506252289,0.0030543238390237093,0.0720820426940918
1760903914724476400,4.392476318359375,0.3468184769153595,0.04825831577181816,0.13683371245861053
1760903914734165500,4.40216552734375,0.37369653582572937,-0.039706211537122726,0.11728604137897491
1760903914743854300,4.411854248046875,0.3370446562767029,-0.22663083672523499,0.028099779039621353
1760903914753543400,4.42154345703125,0.23075416684150696,-0.5186241865158081,-0.056199558079242706
1760903914763232500,4.431232421875,0.04993819445371628,-0.841160774230957,-0.08429934084415436
1760903914772921300,4.44092138671875,-0.16264274716377258,-1.1074978113174438,-0.0769689604640007
1760903914782610400,4.4506103515625,-0.337350070476532,-1.2846486568450928,-0.06352993845939636
1760903914792299500,4.460299560546875,-0.42042768001556396,-1.3848304748535156,-0.050090912729501724
1760903914801988400,4.46998828125,-0.41065385937690735,-1.4129302501678467,-0.03543015569448471
1760903914811677400,4.479677490234375,-0.3678933084011078,-1.3286309242248535,-0.04153880476951599
1760903914821366300,4.4893662109375,-0.3813323378562927,-1.1270455121994019,-0.08063415437936783
1760903914831055400,4.499055419921875,-0.5059487819671631,-0.7959567904472351,-0.14660754799842834
1760903914840744400,4.508744384765625,-0.7038689255714417,-0.4257727563381195,-0.22846342623233795
1760903914850433300,4.518433349609375,-0.8871283531188965,-0.09834922850131989,-0.3555232882499695
1760903914860122400,4.528122314453125,-0.9983057379722595,0.24251331388950348,-0.4862483739852905
1760903914869811500,4.5378115234375,-1.0361794233322144,0.4159989058971405,-0.6023126840591431
1760903914879500300,4.547500244140625,-1.0691660642623901,0.3549124300479889,-0.627968966960907
1760903914889189400,4.557189453125,-1.0826051235198975,0.033597562462091446,-0.5681042671203613
1760903914898878200,4.566878173828125,-1.1009310483932495,-0.29504770040512085,-0.4874700903892517
1760903914908567300,4.5765673828125,-1.1742348670959473,-0.4734202027320862,-0.41905322670936584
1760903914918256400,4.58625634765625,-1.3196206092834473,-0.4770853817462921,-0.38240134716033936
1760903914927945500,4.595945556640625,-1.3807071447372437,-0.4355465769767761,-0.49602219462394714
1760903914937634300,4.60563427734375,-1.384372353553772,-0.47097674012184143,-0.6389645338058472
1760903914947323400,4.615323486328125,-1.3330596685409546,-0.5320632457733154,-0.8197805285453796
1760903914957012200,4.62501220703125,-1.162017583847046,-0.822834849357605,-1.0189224481582642
1760903914966701300,4.634701416015625,-0.7673988938331604,-1.7232495546340942,-1.2070688009262085
1760903914976390400,4.644390380859375,-0.34956738352775574,-2.727511167526245,-1.4563016891479492
1760903914986079200,4.654079345703125,0.007177661173045635,-3.398240804672241,-1.7043126821517944
1760903914995768300,4.663768310546875,0.40546149015426636,-3.906480312347412,-1.8240422010421753
1760903915005457400,4.67345751953125,0.7035635113716125,-4.241234302520752,-1.8374812602996826
1760903915015146200,4.683146240234375,0.7622065544128418,-4.364628791809082,-1.8032728433609009
1760903915024835300,4.69283544921875,0.5899426341056824,-4.357298374176025,-1.711643099784851
1760903915034524400,4.7025244140625,0.26129740476608276,-4.145939350128174,-1.5784746408462524
1760903915044213200,4.712213134765625,-0.12843431532382965,-3.6596908569335938,-1.4110976457595825
1760903915053902300,4.72190234375,-0.4815141558647156,-2.9767441749572754,-1.1948515176773071
1760903915073280300,4.7412802734375,-0.7050906419754028,-1.6279546022415161,-0.5790998339653015
1760903915082969300,4.75096923828125,-0.5096139311790466,-1.368947982788086,-0.15149445831775665
1760903915092658400,4.760658447265625,-0.22983787953853607,-1.1380411386489868,0.19792018830776215
1760903915102347300,4.77034716796875,0.009621120058000088,-0.16310089826583862,0.31642794609069824
1760903915112036400,4.780036376953125,0.18066325783729553,0.6078104376792908,0.39828383922576904
1760903915121725200,4.78972509765625,0.3565923273563385,0.9926552772521973,0.5216785073280334
1760903915131414300,4.799414306640625,0.43111783266067505,1.6743803024291992,0.6206386089324951
1760903915141103400,4.809103271484375,0.4030180275440216,1.5790854692459106,0.8002328872680664
1760903915150792400,4.81879248046875,0.25274530053138733,1.387273907661438,0.9309579133987427
1760903915160481300,4.828481201171875,-0.011148282326757908,1.1331541538238525,1.0067051649093628
1760903915170170400,4.83817041015625,-0.33857181668281555,0.28405213356018066,0.9566142559051514
1760903915179859200,4.847859130859375,-0.6769908666610718,-0.656679630279541,0.6963858604431152
1760903915189548300,4.85754833984375,-0.9787580966949463,-1.3005311489105225,0.4789179861545563
1760903915199237400,4.8672373046875,-1.2328778505325317,-1.3481786251068115,0.4276053309440613
1760903915208926500,4.876926513671875,-1.373376727104187,-1.0219768285751343,0.4508182108402252
1760903915218615300,4.886615234375,-1.4320197105407715,-0.5797106623649597,0.5619956254959106
1760903915228304400,4.896304443359375,-1.4283546209335327,-0.24373504519462585,0.7648026943206787
1760903915247682300,4.915682373046875,-1.2292126417160034,-0.06291907280683517,1.0958913564682007
1760903915257371400,4.925371337890625,-1.2512037754058838,-0.26939135789871216,1.1044435501098633
1760903915267060200,4.935060302734375,-1.450345754623413,-0.7043271064758301,1.0091485977172852
1760903915276749300,4.944749267578125,-1.763108491897583,-1.1612539291381836,0.7977893948554993
1760903915286438400,4.9544384765625,-2.056323528289795,-1.3481786251068115,0.5033525824546814
1760903915296127200,4.964127197265625,-2.1784965991973877,-1.2553271055221558,0.2675587832927704
1760903915305816300,4.97381640625,-2.177274703979492,-1.0378592014312744,0.09040798991918564
1760903915315505400,4.98350537109375,-2.095418930053711,-0.8008437156677246,-0.07574722915887833
1760903915325194200,4.9931943359375,-1.9402592182159424,-0.6200277805328369,-0.2406807243824005
1760903915334883300,5.00288330078125,-1.772882342338562,-0.4929678738117218,-0.3811796307563782
1760903915344572400,5.012572509765625,-1.6604832410812378,-0.36835145950317383,-0.5131264328956604
1760903915354261500,5.022261474609375,-1.6470441818237305,-0.3231474757194519,-0.665842592716217
1760903915363950300,5.031950439453125,-1.735008716583252,-0.49663305282592773,-0.8368847370147705
1760903915383328300,5.051328369140625,-2.014784812927246,-1.0317505598068237,-1.196073293685913
1760903915393017300,5.061017333984375,-2.001345634460449,-0.9828814268112183,-1.1911863088607788
1760903915402706400,5.07070654296875,-1.891390085220337,-0.648127555847168,-1.071456789970398
1760903915412395500,5.0803955078125,-1.7130175828933716,-0.2828303873538971,-0.8833104968070984
1760903915422084400,5.09008447265625,-1.4906628131866455,-0.14110976457595825,-0.6548470258712769
1760903915431773400,5.0997734375,-1.2890774011611938,-0.14233149588108063,-0.4581485986709595
1760903915441462300,5.109462158203125,-1.131474256515503,-0.143553227186203,-0.3433060050010681
1760903915451151400,5.1191513671875,-0.9433279633522034,-0.20952661335468292,-0.2724456787109375
1760903915460840400,5.12884033203125,-0.7234166264533997,-0.33536475896835327,-0.22968515753746033
1760903915470529500,5.138529541015625,-0.6513345837593079,-0.5345066785812378,-0.22235478460788727
1760903915480218400,5.14821826171875,-0.7796161770820618,-0.8998038172721863,-0.2809978127479553
1760903915489907500,5.157907470703125,-1.0007492303848267,-1.229670763015747,-0.4214966893196106
1760903915499596500,5.167596435546875,-1.1644610166549683,-1.4581341743469238,-0.6438514590263367
1760903915509285400,5.177285400390625,-1.1852303743362427,-1.5851941108703613,-0.9053016304969788
1760903915518974500,5.186974365234375,-1.060613989830017,-1.4923427104949951,-1.099556565284729
1760903915528663600,5.19666357421875,-0.838259220123291,-1.0439679622650146,-1.0653481483459473
1760903915538352400,5.206352294921875,-0.6122392416000366,-0.5039634704589844,-0.7965676784515381
1760903915548041500,5.21604150390625,-0.45707955956459045,-0.16310089826583862,-0.42394015192985535
1760903915557730600,5.22573046875,-0.40088000893592834,-0.08368847519159317,-0.07574722915887833
1760903915567419400,5.23541943359375,-0.43142324686050415,-0.11667517572641373,0.15027274191379547
1760903915577108500,5.2451083984375,-0.49373146891593933,-0.08002328872680664,0.21991132199764252
1760903915586797600,5.254797607421875,-0.5145008563995361,-0.02260199747979641,0.17348559200763702
1760903915596486400,5.264486328125,-0.49861836433410645,0.01649334840476513,0.050090912729501724
1760903915606175500,5.274175537109375,-0.4277580678462982,-0.0030543238390237093,-0.08307760953903198
1760903915615864600,5.283864501953125,-0.3104720115661621,-0.07147117704153061,-0.18203771114349365
1760903915625553700,5.2935537109375,-0.16875138878822327,-0.11178825795650482,-0.235793799161911
1760903915635242500,5.303242431640625,-0.036804601550102234,-0.07024945318698883,-0.22357651591300964
1760903915644931600,5.312931640625,0.043829549103975296,0.07513637095689774,-0.13194678723812103
1760903915654620700,5.32262060546875,0.05482511222362518,0.2767217457294464,0.04153880476951599
1760903915664309500,5.3323095703125,0.024281874299049377,0.4612029194831848,0.2626718580722809
1760903915673998600,5.34199853515625,0.037720900028944016,0.5308414697647095,0.48991355299949646
1760903915683687700,5.351687744140625,0.05849030241370201,0.4880809485912323,0.6988292932510376
1760903915693376800,5.361376708984375,-0.042913250625133514,0.3695732057094574,0.7892373204231262
1760903915703065600,5.371065673828125,-0.2444986253976822,0.18875721096992493,0.7318159937858582
1760903915712754700,5.380754638671875,-0.37522369623184204,0.1386663019657135,0.5962040424346924
1760903915722443800,5.39044384765625,-0.3459021747112274,0.22296564280986786,0.46059203147888184
1760903915732132600,5.400132568359375,-0.24572035670280457,0.3390299379825592,0.34208428859710693
1760903915741821700,5.40982177734375,-0.14798198640346527,0.39400777220726013,0.2809978127479553
1760903915751510800,5.4195107421875,-0.07223475724458694,0.3854556679725647,0.3127627670764923
1760903915761199600,5.42919970703125,-0.0001527161948615685,0.3390299379825592,0.3897317349910736
1760903915770888700,5.438888671875,0.05482511222362518,0.28405213356018066,0.4520399272441864
1760903915780577800,5.448577880859375,0.0487164668738842,0.21685700118541718,0.4618137776851654
1760903915790267000,5.458266845703125,0.005955931730568409,0.14477495849132538,0.4166097939014435
1760903915799955700,5.467955810546875,-0.05024362727999687,0.10567960888147354,0.3347539007663727
1760903915809644800,5.477644775390625,-0.0746782198548317,0.09834922850131989,0.25900667905807495
1760903915819334000,5.487333984375,-0.05635227635502815,0.09957095980644226,0.1893680840730667
1760903915829023000,5.49702294921875,-0.01359174121171236,0.08613193035125732,0.11484257876873016
1760903915838711800,5.5067119140625,0.03649916872382164,0.06047561392188072,0.026878049597144127
1760903915848401000,5.51640087890625,0.06337722390890121,0.049480047076940536,-0.07330377399921417
1760903915858090000,5.526090087890625,0.05849030241370201,0.01282816007733345,-0.1637117564678192
1760903915867778800,5.53577880859375,0.04505127668380737,-0.03481929376721382,-0.23823726177215576
1760903915877468000,5.545468017578125,0.04016435891389847,-0.06291907280683517,-0.2834412455558777
1760903915887157000,5.555156982421875,0.03894263133406639,-0.06414080411195755,-0.27855435013771057
1760903915896846000,5.56484619140625,0.053603384643793106,-0.014049889519810677,-0.18325942754745483
1760903915906535000,5.574534912109375,0.11102467030286789,0.10934479534626007,-0.020769402384757996
1760903915916224000,5.58422412109375,-0.0001527161948615685,0.06536252796649933,-0.010995565913617611
1760903915925913000,5.5939130859375,-0.15775582194328308,-0.0873536616563797,-0.06719512492418289
1760903915935602200,5.603602294921875,-0.22617268562316895,-0.17776164412498474,-0.14049890637397766
1760903915945291000,5.613291015625,-0.264046311378479,-0.17165300250053406,-0.2260199636220932
1760903915954980000,5.62297998046875,-0.28848087787628174,-0.12278381735086441,-0.2932150959968567
1760903915964669200,5.632669189453125,-0.26282456517219543,-0.12644900381565094,-0.3237583339214325
1760903915974358300,5.642358154296875,-0.26160284876823425,-0.1545487940311432,-0.33108872175216675
1760903915984047400,5.65204736328125,-0.3520108163356781,-0.14477495849132538,-0.2981020212173462
1760903915993736200,5.661736083984375,-0.33490660786628723,-0.01649334840476513,-0.1698204129934311
1760903916003425300,5.67142529296875,-0.14798198640346527,0.2522871494293213,0.013439024798572063
1760903916013114400,5.6811142578125,0.0010690133785828948,0.4477638900279999,0.10384701192378998
1760903916022803500,5.690803466796875,-0.039248060435056686,0.3182605504989624,0.04276053607463837
1760903916032492500,5.700492431640625,-0.12354740500450134,-0.11667517572641373,-0.08796452730894089
1760903916042181400,5.710181396484375,-0.14431680738925934,-0.5589412450790405,-0.26511532068252563
1760903916051870500,5.719870361328125,-0.21395538747310638,-0.7348703145980835,-0.44837474822998047
1760903916061559600,5.7295595703125,-0.4192059636116028,-0.10934479534626007,-0.7269290685653687
1760903916071248600,5.73924853515625,-0.5768090486526489,0.1545487940311432,-1.0299180746078491
1760903916080937500,5.7489375,-0.5804742574691772,-0.27550002932548523,-1.2608249187469482
1760903916090626600,5.75862646484375,-0.4961749315261841,-0.3023780584335327,-1.4208714962005615
1760903916100315600,5.768315673828125,-0.4094321131706238,-0.1740964651107788,-1.4489712715148926
1760903916110004700,5.778004638671875,-0.3520108163356781,-0.21197007596492767,-1.37078058719635
1760903916119693800,5.78769384765625,-0.3116937577724457,-0.4477638900279999,-1.2119556665420532
1760903916129382700,5.797382568359375,-0.3153589367866516,-0.6615665555000305,-1.0274745225906372
1760903916139071700,5.80707177734375,-0.3617846667766571,-0.6603448390960693,-0.8491020202636719
1760903916148760800,5.8167607421875,-0.3837758004665375,-0.4404335021972656,-0.6585122346878052
1760903916158450000,5.826449951171875,-0.3251327872276306,-0.13011419773101807,-0.4422661066055298
1760903916168139000,5.836138916015625,-0.1931859850883484,0.1178968995809555,-0.1954767256975174
1760903916177827800,5.845827880859375,-0.02825249545276165,0.24862197041511536,0.04276053607463837
1760903916187517000,5.855516845703125,0.13423752784729004,0.2571740746498108,0.235793799161911
1760903916197206000,5.8652060546875,0.25152358412742615,0.1692095398902893,0.370184063911438
1760903916206895000,5.87489501953125,0.28817546367645264,0.05436696484684944,0.43371400237083435
1760903916216584200,5.884584228515625,0.24663665890693665,-0.010384701192378998,0.4361574649810791
1760903916226273300,5.894273193359375,0.16844595968723297,0.006719512399286032,0.3958403766155243
1760903916235962400,5.90396240234375,0.15500694513320923,0.1130099818110466,0.3494146466255188
1760903916245651200,5.913651123046875,0.20143266022205353,0.21685700118541718,0.29443681240081787
1760903916255340300,5.92334033203125,0.2380845546722412,0.2632827162742615,0.19792018830776215
1760903916265029400,5.933029296875,0.2393062710762024,0.2254091054201126,0.07086031138896942
1760903916274718500,5.942718505859375,0.2075413018465042,0.15088360011577606,-0.050090912729501724
1760903916284407600,5.952407470703125,0.14767655730247498,0.14477495849132538,-0.1380554437637329
1760903916294096600,5.9620966796875,0.06826414167881012,0.20463970303535461,-0.18814635276794434
1760903916303785700,5.97178564453125,-0.016035201027989388,0.2620609998703003,-0.19181154668331146
1760903916313474600,5.981474609375,-0.09056070446968079,0.24373504519462585,-0.1490510106086731
1760903916323163600,5.99116357421875,-0.1455385386943817,0.13744457066059113,-0.05864302068948746
1760903916332852700,6.000852783203125,-0.17608177661895752,0.03237583488225937,0.053756099194288254
1760903916342541800,6.010541748046875,-0.19929464161396027,-0.053145237267017365,0.1649334877729416
1760903916352231000,6.02023095703125,-0.2530507445335388,-0.08613193035125732,0.2406807243824005
1760903916361920000,6.029919921875,-0.337350070476532,-0.0409279391169548,0.23335035145282745
1760903916371609000,6.039609130859375,-0.39965829253196716,0.027488915249705315,0.17226386070251465
1760903916381298200,6.049298095703125,-0.38988444209098816,0.06414080411195755,0.07941242307424545
1760903916390987000,6.058987060546875,-0.264046311378479,0.1594357043504715,0.018325943499803543
1760903916400676000,6.068676025390625,-0.06856957077980042,0.33658650517463684,0.017104214057326317
1760903916410365200,6.078365234375,0.11346813291311264,0.47586366534233093,0.07452550530433655
1760903916420054300,6.08805419921875,0.23686282336711884,0.5039634704589844,0.16859868168830872
1760903916429743400,6.097743408203125,0.31871870160102844,0.5809323787689209,0.287106454372406
1760903916439432400,6.107432373046875,0.35048365592956543,0.6224712133407593,0.4276053309440613
1760903916449121500,6.11712158203125,0.3150535225868225,0.5674933791160583,0.5717694163322449
1760903916458810600,6.126810546875,0.22586725652217865,0.5015199780464172,0.7134900689125061
1760903916468499700,6.136499755859375,0.10125083476305008,0.5137372612953186,0.8539889454841614
1760903916478188800,6.146188720703125,-0.039248060435056686,0.5980366468429565,1.0042617321014404
1760903916487878000,6.1558779296875,-0.1614210158586502,0.6713404059410095,1.1459823846817017
1760903916497567000,6.16556689453125,-0.20662501454353333,0.6933315396308899,1.2424989938735962
1760903916507255800,6.175255859375,-0.16386447846889496,0.6517927050590515,1.2718204259872437
1760903916516945000,6.18494482421875,-0.08689551800489426,0.5882627964019775,1.2205078601837158
1760903916526634000,6.194634033203125,-0.0062613640911877155,0.5064069032669067,1.1056652069091797
1760903916536323000,6.204322998046875,0.04260781779885292,0.4001164436340332,0.9480621218681335
1760903916546012200,6.21401220703125,0.027947064489126205,0.35124725103378296,0.7660244107246399
1760903916555701200,6.223701171875,-0.039248060435056686,0.33047783374786377,0.5681042671203613
1760903916565390300,6.233390380859375,-0.12965604662895203,0.3023780584335327,0.36774060130119324
1760903916575079400,6.243079345703125,-0.22495095431804657,0.29504770040512085,0.17715078592300415
1760903916584768500,6.2527685546875,-0.2909243404865265,0.28405213356018066,0.021991131827235222
1760903916594457600,6.26245751953125,-0.30802857875823975,0.2522871494293213,-0.0818558782339096
1760903916604146700,6.272146728515625,-0.28725916147232056,0.2559523284435272,-0.13683371245861053
1760903916613835800,6.281835693359375,-0.233503058552742,0.2877173125743866,-0.1588248461484909
1760903916623524900,6.29152490234375,-0.15897755324840546,0.29993459582328796,-0.17226386070251465
1760903916633214000,6.3012138671875,-0.07834340631961823,0.3170388340950012,-0.20647229254245758
1760903916642903000,6.310903076171875,-0.012370011769235134,0.1802051067352295,-0.2565632164478302
1760903916652592000,6.320592041015625,0.01695149764418602,-0.01282816007733345,-0.32131487131118774
1760903916662281200,6.33028125,0.018173227086663246,-0.13500112295150757,-0.38728827238082886
1760903916671970300,6.33997021484375,0.019394956529140472,-0.1484401375055313,-0.43982264399528503
1760903916681659400,6.349659423828125,0.03405570983886719,-0.09957095980644226,-0.4789179861545563
1760903916691348500,6.359348388671875,0.05971203371882439,-0.06780599057674408,-0.5094612240791321
1760903916701037600,6.36903759765625,0.08170316368341446,-0.06047561392188072,-0.5338957905769348
1760903916710726700,6.3787265625,0.08659008145332336,-0.0873536616563797,-0.5473348498344421
1760903916720415700,6.388415771484375,0.064598947763443,-0.1337793916463852,-0.536339282989502
1760903916730104800,6.398104736328125,0.021838415414094925,-0.16676609218120575,-0.4923570156097412
1760903916739794000,6.4077939453125,-0.025809036567807198,-0.19853104650974274,-0.41905322670936584
1760903916749483000,6.41748291015625,-0.06123919412493706,-0.20463970303535461,-0.3237583339214325
1760903916759172000,6.427172119140625,-0.06734783947467804,-0.15577052533626556,-0.22479823231697083
1760903916768861200,6.436861083984375,-0.05146535858511925,-0.07024945318698883,-0.13194678723812103
1760903916778550300,6.44655029296875,-0.01847865991294384,-0.033597562462091446,-0.056199558079242706
1760903916788239400,6.4562392578125,0.0206166859716177,-0.05925388261675835,-0.010995565913617611
1760903916797928400,6.465928466796875,0.05971203371882439,-0.11911863088607788,0.008552107028663158
1760903916807617500,6.475617431640625,0.10613775253295898,-0.19242240488529205,0.007330377586185932
1760903916817306600,6.485306640625,0.15989385545253754,-0.25961753726005554,-0.010995565913617611
1760903916826995700,6.49499560546875,0.21731515228748322,-0.34147340059280396,-0.046425722539424896
1760903916836684800,6.504684814453125,0.27229297161102295,-0.46364638209342957,-0.09040798991918564
1760903916846374000,6.514373779296875,0.3174969553947449,-0.5858193039894104,-0.14294235408306122
1760903916856063000,6.52406298828125,0.35903576016426086,-0.6823359727859497,-0.19914191961288452
1760903916865752000,6.533751953125,0.4127918779850006,-0.7385355234146118,-0.24556763470172882
1760903916875441200,6.543441162109375,0.47265663743019104,-0.7568614482879639,-0.2761108875274658
1760903916885130200,6.553130126953125,0.5178605914115906,-0.7751874327659607,-0.2968802750110626
1760903916894819300,6.5628193359375,0.539851725101471,-0.7910698652267456,-0.31520622968673706
1760903916904508400,6.57250830078125,0.5484038591384888,-0.7470875978469849,-0.3274235129356384
1760903916914197500,6.582197509765625,0.5655080676078796,-0.5503891706466675,-0.3335321843624115
1760903916923886600,6.591886474609375,0.5765036344528198,-0.28527384996414185,-0.35796675086021423
1760903916933575700,6.60157568359375,0.5300779342651367,-0.19364413619041443,-0.39828383922576904
1760903916943264800,6.6112646484375,0.5276344418525696,-0.205861434340477,-0.43004879355430603
1760903916952953900,6.620953857421875,0.5630646347999573,-0.24006985127925873,-0.48502662777900696
1760903916962643000,6.630642822265625,0.5325213670730591,-0.3292561173439026,-0.5558869242668152
1760903916972332000,6.64033203125,0.45188722014427185,-0.3854556679725647,-0.6133082509040833
1760903916982021000,6.650021240234375,0.36880961060523987,-0.3194822669029236,-0.6291907429695129
1760903916991710500,6.65971044921875,0.33826637268066406,-0.13744457066059113,-0.5778780579566956
1760903917001399300,6.6693994140625,0.3614792227745056,0.07269290834665298,-0.46547895669937134
1760903917011088600,6.679088623046875,0.3993528485298157,0.29993459582328796,-0.32009315490722656
1760903917020777700,6.68877783203125,0.4176788032054901,0.5345066785812378,-0.17104214429855347
1760903917030466800,6.698466796875,0.38957902789115906,0.739757239818573,-0.01954767294228077
1760903917040156000,6.708156005859375,0.28817546367645264,0.8582650423049927,0.12705987691879272
1760903917049845000,6.717844970703125,0.11346813291311264,0.8313869833946228,0.23335035145282745
1760903917059534000,6.7275341796875,-0.11255183815956116,0.7067705392837524,0.287106454372406
1760903917069223200,6.73722314453125,-0.3165806829929352,0.5296197533607483,0.2968802750110626
1760903917078912300,6.746912353515625,-0.45707955956459045,0.40866854786872864,0.2712239623069763
1760903917088601300,6.756601318359375,-0.458301305770874,0.5748237371444702,0.2406807243824005
1760903917098290400,6.76629052734375,-0.2738201320171356,0.9718858599662781,0.23457208275794983
1760903917107979500,6.7759794921875,0.060933761298656464,1.4508038759231567,0.23945899307727814
1760903917117668600,6.785668701171875,0.48243045806884766,1.9162827730178833,0.23945899307727814
1760903917127358000,6.79535791015625,0.9356921315193176,2.3548836708068848,0.2309068888425827
1760903917137047000,6.805047119140625,1.3205369710922241,2.640768527984619,0.19914191961288452
1760903917146736000,6.814736083984375,1.5318961143493652,2.617555618286133,0.13927717506885529
1760903917156425200,6.82442529296875,1.528230905532837,2.1520767211914062,0.0818558782339096
1760903917166114300,6.8341142578125,1.2973240613937378,1.2858703136444092,0.03787361457943916
1760903917175803400,6.843803466796875,0.8965967893600464,0.21197007596492767,-0.001221729558892548
1760903917185492500,6.853492431640625,0.4543306827545166,-0.6969966888427734,-0.036651886999607086
1760903917195181600,6.863181640625,0.10735948383808136,-1.2333359718322754,-0.0513126403093338
1760903917204870700,6.87287060546875,-0.08078686892986298,-1.4312561750411987,-0.009773836471140385
1760903917214560000,6.88256005859375,-0.10399972647428513,-1.3848304748535156,0.09285144507884979
1760903917224249000,6.8922490234375,0.031612250953912735,-1.1624757051467896,0.20402882993221283
1760903917233938200,6.901938232421875,0.3065013885498047,-0.7385355234146118,0.25045454502105713
1760903917243627300,6.911627197265625,0.6351466774940491,-0.23273947834968567,0.2528980076313019
1760903917253316400,6.92131640625,0.9051488637924194,0.1692095398902893,0.20647229254245758
1760903917263005400,6.93100537109375,1.0639737844467163,0.49418962001800537,0.09162971377372742
1760903917272694500,6.940694580078125,1.0541999340057373,0.5748237371444702,-0.04520399495959282
1760903917282383600,6.950383544921875,0.93813556432724,0.43310311436653137,-0.19914191961288452
1760903917292073000,6.960072998046875,0.781754195690155,0.18753549456596375,-0.35796675086021423
1760903917301762000,6.969761962890625,0.6522508859634399,-0.010384701192378998,-0.5057960152626038
1760903917311451100,6.979451171875,0.5789470672607422,-0.08613193035125732,-0.6328558921813965
1760903917321140200,6.98914013671875,0.5459604263305664,-0.13011419773101807,-0.7281508445739746
1760903917330829300,6.998829345703125,0.5520690679550171,-0.20463970303535461,-0.7904590368270874
1760903917340518400,7.008518310546875,0.6107120513916016,-0.2706131041049957,-0.8148936033248901
1760903917350207700,7.018207763671875,0.69012451171875,-0.3549124300479889,-0.8087849617004395
1760903917359896800,7.027896728515625,0.771980345249176,-0.42332929372787476,-0.7696896195411682
1760903917369586000,7.0375859375,0.8306233882904053,-0.4514290690422058,-0.6878337264060974
1760903917379275000,7.04727490234375,0.8318451046943665,-0.4404335021972656,-0.5497782826423645
1760903917388964000,7.056964111328125,0.7976366877555847,-0.41233372688293457,-0.3237583339214325
1760903917398653200,7.066653076171875,0.7560978531837463,-0.3243691921234131,-0.07086031138896942
1760903917408342300,7.07634228515625,0.6998983025550842,-0.21930044889450073,0.19914191961288452
1760903917418031600,7.086031494140625,0.6436987519264221,-0.05436696484684944,0.43371400237083435
1760903917427720700,7.095720703125,0.5740602016448975,0.1130099818110466,0.6255255341529846
1760903917437409800,7.105409912109375,0.5190823674201965,0.1997527778148651,0.7794634699821472
1760903917447099000,7.115098876953125,0.4738783538341522,0.37201663851737976,0.8307760953903198
1760903917456788000,7.1247880859375,0.4396699368953705,0.4929678738117218,0.7867938280105591
1760903917466477000,7.13447705078125,0.4298960864543915,0.4673115611076355,0.6536253094673157
1760903917476166400,7.14416650390625,0.45677414536476135,0.32559093832969666,0.46425724029541016
1760903917485855500,7.15385546875,0.4958694875240326,0.17165300250053406,0.25534147024154663
1760903917495544600,7.163544677734375,0.5374082922935486,0.011606430634856224,0.07330377399921417
1760903917505233700,7.173233642578125,0.5447386503219604,-0.1130099818110466,-0.040317077189683914
1760903917514922800,7.1829228515625,0.5264127254486084,-0.19364413619041443,-0.10751219838857651
1760903917524612000,7.192612060546875,0.5911644101142883,-0.2608392536640167,-0.09896009415388107
1760903917534301200,7.20230126953125,0.6950113773345947,-0.22418737411499023,-0.03909534588456154
1760903917543990300,7.211990234375,0.791528046131134,-0.13011419773101807,0.034208428114652634
1760903917553679400,7.221679443359375,0.9173662066459656,-0.06291907280683517,0.12583814561367035
1760903917563368400,7.231368408203125,1.0151045322418213,-0.04214967042207718,0.21135921776294708
1760903917573057800,7.241057861328125,1.059086799621582,-0.08613193035125732,0.27488914132118225
1760903917582747000,7.250746826171875,1.0615302324295044,-0.16676609218120575,0.31031930446624756
1760903917592436000,7.26043603515625,1.0468695163726807,-0.21930044889450073,0.3176496922969818
1760903917602125000,7.270125,1.001665472984314,-0.2364046722650528,0.3090975880622864
1760903917611814100,7.279814208984375,0.8904881477355957,-0.21685700118541718,0.2712239623069763
1760903917621503500,7.28950341796875,0.7194460034370422,-0.19120067358016968,0.1893680840730667
1760903917631192600,7.299192626953125,0.5227475166320801,-0.2816086709499359,0.10629047453403473
1760903917640881700,7.308881591796875,0.3614792227745056,-0.40744680166244507,0.05864302068948746
1760903917650570800,7.31857080078125,0.2955058515071869,-0.4831940531730652,0.06963858753442764
1760903917660260000,7.328260009765625,0.34926193952560425,-0.5271763205528259,0.15760311484336853
1760903917669949200,7.33794921875,0.5007563829421997,-0.5064069032669067,0.3127627670764923
1760903917679638300,7.34763818359375,0.6950113773345947,-0.389120876789093,0.4984656572341919
1760903917689327400,7.357327392578125,0.8403972387313843,-0.2009745091199875,0.6707295179367065
1760903917699016400,7.367016357421875,0.9112575054168701,0.05192350596189499,0.7770199775695801
1760903917708705500,7.37670556640625,0.9051488637924194,0.2559523284435272,0.8063415288925171
1760903917718395000,7.386394775390625,0.8391754627227783,0.33658650517463684,0.7672461867332458
1760903917728084000,7.396083984375,0.7072287201881409,0.31581708788871765,0.6560688018798828
1760903917737773000,7.40577294921875,0.5288561582565308,0.17531819641590118,0.49602219462394714
1760903917747462400,7.41546240234375,0.3614792227745056,-0.05558869615197182,0.31642794609069824
1760903917757151500,7.4251513671875,0.24174973368644714,-0.3023780584335327,0.14538581669330597
1760903917766840600,7.434840576171875,0.1672242283821106,-0.5137372612953186,0.009773836471140385
1760903917776529700,7.44452978515625,0.10125083476305008,-0.6591231226921082,-0.07574722915887833
1760903917786219000,7.454218994140625,0.041386090219020844,-0.7079922556877136,-0.10873392969369888
1760903917795908000,7.463908203125,0.015729768201708794,-0.6603448390960693,-0.08918625861406326
1760903917805597200,7.47359716796875,0.01206457894295454,-0.5283980369567871,-0.03298669680953026
1760903917815286300,7.483286376953125,-0.005039634648710489,-0.3402516841888428,0.028099779039621353
1760903917824975400,7.492975341796875,-0.04535670951008797,-0.1337793916463852,0.06963858753442764
1760903917834664700,7.502664794921875,-0.10399972647428513,0.03481929376721382,0.08063415437936783
1760903917844353800,7.512353759765625,-0.16997312009334564,0.11056652665138245,0.0513126403093338
1760903917854043000,7.52204296875,-0.23472478985786438,0.09957095980644226,-0.008552107028663158
1760903917863732000,7.53173193359375,-0.2799287736415863,0.020158538594841957,-0.06963858753442764
1760903917873421300,7.54142138671875,-0.2811505198478699,-0.10079269111156464,-0.11239911615848541
1760903917883110400,7.5511103515625,-0.22983787953853607,-0.2254091054201126,-0.1380554437637329
1760903917892799500,7.560799560546875,-0.12965604662895203,-0.32192572951316833,-0.1441640853881836
1760903917902488600,7.570488525390625,-0.01359174121171236,-0.36835145950317383,-0.13561198115348816
1760903917912178000,7.580177978515625,0.08536835014820099,-0.3341430425643921,-0.11362084746360779
1760903917921867000,7.589866943359375,0.14767655730247498,-0.23273947834968567,-0.08918625861406326
1760903917931556000,7.59955615234375,0.15745039284229279,-0.11667517572641373,-0.0720820426940918
1760903917941245200,7.6092451171875,0.10980294644832611,-0.029932374134659767,-0.0769689604640007
1760903917950934500,7.6189345703125,-0.02825249545276165,-0.001832594396546483,-0.1282816082239151
1760903917960623600,7.62862353515625,-0.1663079410791397,-0.06902772188186646,-0.18081597983837128
1760903917970312700,7.638312744140625,-0.27626359462738037,-0.10201441496610641,-0.23212862014770508
1760903917980001800,7.648001708984375,-0.35934120416641235,-0.12644900381565094,-0.2712239623069763
1760903917989691100,7.657691162109375,-0.42531460523605347,-0.1386663019657135,-0.2883281707763672
1760903917999380200,7.667380126953125,-0.46196648478507996,-0.1178968995809555,-0.27000224590301514
1760903918009069300,7.6770693359375,-0.47174033522605896,-0.06536252796649933,-0.21502439677715302
1760903918018758400,7.68675830078125,-0.4692968726158142,-0.021380268037319183,-0.14538581669330597
1760903918028447700,7.69644775390625,-0.4656316637992859,-0.017715077847242355,-0.06597339361906052
1760903918038136800,7.70613671875,-0.4546361267566681,-0.04459312930703163,0.012217295356094837
1760903918047826000,7.715825927734375,-0.4497492015361786,-0.09346231073141098,0.0769689604640007
1760903918057515300,7.725515380859375,-0.4851793646812439,-0.15577052533626556,0.11362084746360779
1760903918067204400,7.735204345703125,-0.5792525410652161,-0.22785256803035736,0.11362084746360779
1760903918076893400,7.7448935546875,-0.717307984828949,-0.32070401310920715,0.08552107214927673
1760903918086582500,7.75458251953125,-0.8565851449966431,-0.4147771894931793,0.06475166976451874
1760903918096272000,7.76427197265625,-0.9653190970420837,-0.4221075773239136,0.05253437161445618
1760903918105961000,7.7739609375,-1.023962140083313,-0.3402516841888428,0.04886918142437935
1760903918115650000,7.783650146484375,-1.0276272296905518,-0.21807873249053955,0.05253437161445618
1760903918125339400,7.79333935546875,-0.9775363802909851,-0.09712749719619751,0.06597339361906052
1760903918135028500,7.803028564453125,-0.8907935619354248,0.04825831577181816,0.06352993845939636
1760903918144717600,7.812717529296875,-0.8211549520492554,0.21197007596492767,0.014660755172371864
1760903918154406700,7.82240673828125,-0.8358157277107239,0.32070401310920715,-0.09285144507884979
1760903918164096000,7.832095947265625,-0.8944587707519531,0.30970844626426697,-0.23945899307727814
1760903918173785000,7.84178515625,-0.9030108451843262,0.1899789422750473,-0.38240134716033936
1760903918183474200,7.85147412109375,-0.8126028776168823,0.05558869615197182,-0.4630354940891266
1760903918193163500,7.86116357421875,-0.6782126426696777,-0.0409279391169548,-0.46059203147888184
1760903918202852600,7.8708525390625,-0.5902481079101562,-0.1178968995809555,-0.39828383922576904
1760903918212541700,7.880541748046875,-0.5487092733383179,-0.15577052533626556,-0.3127627670764923
1760903918222231000,7.89023095703125,-0.541378915309906,-0.14477495849132538,-0.23212862014770508
1760903918231920000,7.899920166015625,-0.5474875569343567,-0.11423171311616898,-0.17226386070251465
1760903918241609200,7.909609130859375,-0.5474875569343567,-0.08002328872680664,-0.14049890637397766
1760903918251298300,7.91929833984375,-0.5279398560523987,-0.08002328872680664,-0.14172062277793884
1760903918260987600,7.928987548828125,-0.4949531853199005,-0.1533270627260208,-0.1698204129934311
1760903918270676700,7.9386767578125,-0.45219266414642334,-0.2938259541988373,-0.20647229254245758
1760903918280365800,7.94836572265625,-0.37033677101135254,-0.4355465769767761,-0.21135921776294708
1760903918290055000,7.958054931640625,-0.2444986253976822,-0.47097674012184143,-0.1649334877729416
1760903918299744300,7.967744140625,-0.12843431532382965,-0.337808221578598,-0.08674279600381851
1760903918309433300,7.977433349609375,-0.06123919412493706,-0.0824667438864708,-0.013439024798572063
1760903918319122400,7.987122314453125,-0.06001746281981468,0.1802051067352295,0.03787361457943916
1760903918328811800,7.996811767578125,-0.10277800261974335,0.35735589265823364,0.06352993845939636
1760903918338500900,8.0065009765625,-0.1614210158586502,0.46608981490135193,0.0513126403093338
1760903918348190000,8.01618994140625,-0.22495095431804657,0.5137372612953186,0.010995565913617611
1760903918357879300,8.02587939453125,-0.28725916147232056,0.4880809485912323,-0.04276053607463837
1760903918367568400,8.035568359375,-0.3410152494907379,0.4062250852584839,-0.09896009415388107
1760903918377257500,8.045257568359375,-0.3764454126358032,0.3133736252784729,-0.14294235408306122
1760903918386946600,8.054946533203125,-0.39965829253196716,0.22663083672523499,-0.16126830875873566
1760903918396636000,8.064635986328126,-0.4326449930667877,0.1484401375055313,-0.14294235408306122
1760903918406325000,8.074324951171874,-0.46685341000556946,0.09101885557174683,-0.08307760953903198
1760903918416014000,8.08401416015625,-0.4790706932544708,0.056810423731803894,0.024434590712189674
1760903918425703400,8.093703369140625,-0.4802924394607544,0.07024945318698883,0.19303326308727264
1760903918435392500,8.103392578125,-0.5364919900894165,0.17043127119541168,0.2883281707763672
1760903918445081600,8.11308154296875,-0.5206094980239868,0.143553227186203,0.36285367608070374
1760903918454771000,8.12277099609375,-0.388662725687027,0.205861434340477,0.3995055556297302
1760903918464460000,8.1324599609375,-0.21639885008335114,0.30115634202957153,0.3836230933666229
1760903918474149000,8.142149169921876,-0.07712167501449585,0.2828303873538971,0.31520622968673706
1760903918483838200,8.151838134765624,0.024281874299049377,0.18264856934547424,0.21746785938739777
1760903918493527600,8.161527587890625,0.09636391699314117,0.08368847519159317,0.10751219838857651
1760903918503216600,8.171216552734375,0.13179408013820648,0.007941242307424545,0.013439024798572063
1760903918512905700,8.18090576171875,0.13301581144332886,-0.05925388261675835,-0.03176496922969818
1760903918522595000,8.190594970703126,0.13545925915241241,-0.06047561392188072,-0.012217295356094837
1760903918532284200,8.2002841796875,0.1562286615371704,0.029932374134659767,0.04886918142437935
1760903918541973200,8.20997314453125,0.19654574990272522,0.18387030065059662,0.11972949653863907
1760903918551662600,8.21966259765625,0.2441931962966919,0.33658650517463684,0.17715078592300415
1760903918561351700,8.2293515625,0.2759581506252289,0.4612029194831848,0.2052505612373352
1760903918571040800,8.239040771484374,0.28695371747016907,0.5406153202056885,0.19425499439239502
1760903918580729900,8.248729736328125,0.2893971800804138,0.5332849621772766,0.16004657745361328
1760903918590419200,8.258419189453125,0.2955058515071869,0.43921178579330444,0.1380554437637329
1760903918600108300,8.2681083984375,0.3040579557418823,0.3121519088745117,0.1649334877729416
1760903918609797400,8.27779736328125,0.300392746925354,0.2412915825843811,0.26022839546203613
1760903918619486700,8.28748681640625,0.26740604639053345,0.2559523284435272,0.4105011224746704
1760903918629175800,8.29717578125,0.22953243553638458,0.3280344009399414,0.5827649831771851
1760903918638865200,8.306865234375,0.21975859999656677,0.42821621894836426,0.7525854110717773
1760903918648554200,8.31655419921875,0.25763222575187683,0.5626064538955688,0.8979712128639221
1760903918658243300,8.326243408203124,0.34437501430511475,0.7507528066635132,1.0115920305252075
1760903918667932400,8.335932373046875,0.45066550374031067,1.0036507844924927,1.092226266860962
1760903918677621800,8.345621826171875,0.5545125007629395,1.2675443887710571,1.1435388326644897
1760903918687310800,8.355310791015626,0.6155989766120911,1.4617993831634521,1.156977891921997
1760903918697000000,8.365,0.6155989766120911,1.4801253080368042,1.130099892616272
1760903918706689300,8.374689208984375,0.5227475166320801,1.2467750310897827,1.0567960739135742
1760903918716378400,8.38437841796875,0.3675878942012787,0.6823359727859497,0.972496747970581
1760903918726067500,8.3940673828125,0.22220206260681152,-0.09101885557174683,0.915075421333313
1760903918735756800,8.4037568359375,0.12324196845293045,-0.618806004524231,0.8649845123291016
1760903918745446000,8.41344580078125,0.11468986421823502,-0.6444623470306396,0.8405499458312988
1760903918755135000,8.423135009765625,0.1879936307668686,-0.22907429933547974,0.8368847370147705
1760903918764824300,8.43282421875,0.28695371747016907,0.42332929372787476,0.8222240209579468
1760903918774513400,8.442513427734376,0.35414886474609375,1.1221586465835571,0.7904590368270874
1760903918784202500,8.452202392578124,0.4860956370830536,1.71836256980896,0.7538071274757385
1760903918793891600,8.4618916015625,0.6485856771469116,2.011577606201172,0.7183769941329956
1760903918813270000,8.48127001953125,1.0334304571151733,1.368947982788086,0.6426297426223755
1760903918822959400,8.49095947265625,1.195920467376709,0.8875865340232849,0.5607738494873047
1760903918832648400,8.5006484375,1.1494947671890259,0.4318813979625702,0.44959646463394165
1760903918842337500,8.510337646484375,1.059086799621582,0.07147117704153061,0.36163195967674255
1760903918852027000,8.52002685546875,0.8917098641395569,-0.027488915249705315,0.20280711352825165
1760903918861716000,8.529716064453124,0.6595812439918518,-0.08857539296150208,0.004886918235570192
1760903918871405000,8.539405029296875,0.425009161233902,-0.1899789422750473,-0.18570289015769958
1760903918881094100,8.54909423828125,0.20631958544254303,-0.1496618688106537,-0.33231043815612793
1760903918890783500,8.558783447265625,-0.0013744457392022014,0.01893680728971958,-0.4202749729156494
1760903918900472600,8.56847265625,-0.1467602699995041,0.1692095398902893,-0.45326167345046997
1760903918910161700,8.57816162109375,-0.1773035079240799,0.13500112295150757,-0.46547895669937134
1760903918919851000,8.58785107421875,-0.11621702462434769,-0.06414080411195755,-0.4214966893196106
1760903918929540000,8.5975400390625,-0.08567378669977188,-0.2559523284435272,-0.27366742491722107
1760903918939229200,8.607229248046876,-0.1406516134738922,-0.2938259541988373,-0.10018182545900345
1760903918948918500,8.61691845703125,-0.2237292230129242,-0.13622283935546875,0.053756099194288254
1760903918958607600,8.626607666015625,-0.2848156988620758,0.056810423731803894,0.1490510106086731
1760903918968296700,8.636296630859375,-0.3202458620071411,0.10934479534626007,0.15638138353824615
1760903918977986000,8.645986083984376,-0.3556760251522064,0.0665842592716217,0.12705987691879272
1760903918987675100,8.655675048828124,-0.43753188848495483,0.056810423731803894,0.1233946830034256
1760903918997364200,8.6653642578125,-0.5658134818077087,0.09712749719619751,0.1539379209280014
1760903919007053600,8.675053466796875,-0.6696605086326599,0.2816086709499359,0.14538581669330597
1760903919016742700,8.68474267578125,-0.6171261668205261,0.46608981490135193,0.026878049597144127
1760903919026431700,8.694431640625,-0.4082103967666626,0.3280344009399414,-0.08796452730894089
1760903919036121000,8.70412109375,-0.06612611562013626,0.15577052533626556,-0.19792018830776215
1760903919045810200,8.71381005859375,0.27840161323547363,0.06414080411195755,-0.3017672002315521
1760903919055499300,8.723499267578125,0.3480401933193207,0.05925388261675835,-0.3811796307563782
1760903919065188600,8.733188720703126,0.18555018305778503,0.049480047076940536,-0.39828383922576904
1760903919074877700,8.742877685546874,0.019394956529140472,0.05925388261675835,-0.3347539007663727
1760903919084566800,8.75256689453125,-0.06490438431501389,0.11545344442129135,-0.22724169492721558
1760903919094256000,8.762256103515625,-0.07589995115995407,0.19242240488529205,-0.11362084746360779
1760903919103945200,8.7719453125,-0.04169152304530144,0.2205221801996231,0.017104214057326317
1760903919113634300,8.78163427734375,0.013286309316754341,0.21930044889450073,0.16615521907806396
1760903919123323600,8.79132373046875,0.07070759683847427,0.18631376326084137,0.287106454372406
1760903919133012700,8.8010126953125,0.10369429737329483,0.0665842592716217,0.3494146466255188
1760903919142701800,8.810701904296875,0.08414662629365921,-0.1545487940311432,0.3811796307563782
1760903919152391200,8.82039111328125,0.008399390615522861,-0.40744680166244507,0.401949018239975
1760903919162080300,8.830080322265625,-0.10399972647428513,-0.648127555847168,0.40317076444625854
1760903919171769300,8.839769287109375,-0.2176205813884735,-0.8338304162025452,0.3689623177051544
1760903919181458700,8.849458740234375,-0.3068068325519562,-0.9388991594314575,0.30543237924575806
1760903919191147800,8.859147705078126,-0.35323256254196167,-0.9327905178070068,0.24312418699264526
1760903919200836900,8.8688369140625,-0.34468045830726624,-0.7996219992637634,0.23212862014770508
1760903919210526200,8.878526123046875,-0.29825472831726074,-0.5406153202056885,0.2822195291519165
1760903919220215300,8.88821533203125,-0.24083344638347626,-0.22296564280986786,0.3445277214050293
1760903919229904600,8.897904541015626,-0.17486004531383514,-0.000610864779446274,0.36774060130119324
1760903919239593700,8.90759375,-0.11499529331922531,0.0409279391169548,0.34574946761131287
1760903919249282800,8.91728271484375,-0.1101083755493164,0.011606430634856224,0.287106454372406
1760903919258972000,8.926971923828125,-0.17852523922920227,-0.006719512399286032,0.16859868168830872
1760903919268661200,8.9366611328125,-0.3006981909275055,-0.04825831577181816,0.012217295356094837
1760903919278350300,8.946350341796874,-0.44730573892593384,-0.1081230640411377,-0.16004657745361328
1760903919288039700,8.956039794921875,-0.5890263915061951,-0.1802051067352295,-0.34208428859710693
1760903919297728800,8.965728759765625,-0.6892082095146179,-0.2107483446598053,-0.5021308660507202
1760903919307417900,8.97541796875,-0.7600684762001038,-0.039706211537122726,-0.564439058303833
1760903919317107000,8.98510693359375,-0.8297070860862732,0.29016077518463135,-0.5668824911117554
1760903919326796300,8.99479638671875,-0.8663589954376221,0.6126973628997803,-0.5522217750549316
1760903919336485400,9.0044853515625,-0.8455895781517029,0.8081740736961365,-0.5424479246139526
1760903919346174700,9.0141748046875,-0.7857248187065125,0.8240565657615662,-0.5497782826423645
1760903919355863800,9.02386376953125,-0.7698423266410828,0.6126973628997803,-0.5949822664260864
1760903919365553000,9.033552978515624,-0.8211549520492554,0.24984370172023773,-0.6462949514389038
1760903919375242200,9.0432421875,-0.7869465351104736,-0.0409279391169548,-0.7391464114189148
1760903919384931300,9.052931396484375,-0.6611084342002869,-0.47464191913604736,-0.972496747970581
1760903919394620400,9.062620361328126,-0.4534143805503845,-1.2101231813430786,-1.3292417526245117
1760903919404309500,9.0723095703125,-0.2078467458486557,-1.6560543775558472,-1.6994258165359497
1760903919413998800,9.081998779296875,0.06337722390890121,-1.8466442823410034,-1.944993495941162
1760903919423688000,9.09168798828125,0.2857320010662079,-2.061668634414673,-2.051283836364746
1760903919433377300,9.101377197265625,0.2637408673763275,-2.254701852798462,-1.9462151527404785
1760903919443066400,9.11106640625,0.11591159552335739,-2.154520034790039,-1.637117624282837
1760903919452755500,9.12075537109375,-0.03436114266514778,-1.6633847951889038,-1.2217295169830322
1760903919462444500,9.130444580078125,-0.24205516278743744,-1.153923511505127,-0.8063415288925171
1760903919472134000,9.1401337890625,-0.503505289554596,-0.9584468603134155,-0.40805765986442566
1760903919481823000,9.149822998046876,-0.7527381181716919,-0.8558215498924255,-0.10751219838857651
1760903919491512300,9.15951220703125,-0.920115053653717,-0.7324268817901611,0.11606431007385254
1760903919501201400,9.169201416015625,-0.9897536635398865,-0.5662716627120972,0.3042106628417969
1760903919510890500,9.178890380859375,-0.9775363802909851,-0.23396120965480804,0.4667007029056549
1760903919520579800,9.188579833984376,-0.9518800377845764,0.3634645342826843,0.6365211009979248
1760903919530269000,9.19826904296875,-0.9469931125640869,0.7825177907943726,0.851545512676239
1760903919539958000,9.2079580078125,-0.8956804871559143,0.8839213252067566,1.1704169511795044
1760903919549647000,9.217647216796875,-0.8016073107719421,0.7800742983818054,1.5809180736541748
1760903919559336400,9.22733642578125,-0.7283035516738892,0.7092140316963196,1.9914191961288452
1760903919569025500,9.237025634765626,-0.7515164017677307,0.7287616729736328,2.3286166191101074
1760903919578715000,9.24671484375,-0.892015278339386,0.7287616729736328,2.5851798057556152
1760903919588404000,9.256404052734375,-1.0471749305725098,0.6701186895370483,2.704909324645996
1760903919598093000,9.266093017578125,-1.1632392406463623,0.37812530994415283,2.592510223388672
1760903919607782400,9.275782470703126,-1.2316560745239258,0.006719512399286032,2.2736387252807617
1760903919617471500,9.285471435546874,-1.23654305934906,-0.12278381735086441,1.8423681259155273
1760903919627160600,9.29516064453125,-1.152243733406067,-0.07024945318698883,1.3842196464538574
1760903919636850000,9.304849853515625,-0.9995275139808655,-0.08613193035125732,0.9419534802436829
1760903919646539000,9.3145390625,-0.8590285778045654,-0.31093016266822815,0.49480047821998596
1760903919656228000,9.32422802734375,-0.7796161770820618,-0.6273581385612488,0.1380554437637329
1760903919665917400,9.33391748046875,-0.7234166264533997,-0.953559935092926,-0.11728604137897491
1760903919675606500,9.3436064453125,-0.7295252680778503,-0.9498947262763977,-0.33597561717033386
1760903919685295600,9.353295654296875,-0.7576250433921814,-0.6811142563819885,-0.5045742988586426
1760903919694984700,9.362984619140626,-0.7600684762001038,-0.3023780584335327,-0.6230821013450623
1760903919704674000,9.372674072265625,-0.6598866581916809,-0.053145237267017365,-0.6499601006507874
1760903919714363100,9.382363037109375,-0.34345871210098267,0.15088360011577606,-0.5974257588386536
1760903919724052200,9.39205224609375,0.33948808908462524,0.3659079968929291,-0.5094612240791321
1760903919733741600,9.401741455078126,0.763428270816803,0.5283980369567871,-0.42394015192985535
1760903919743430700,9.4114306640625,0.5948295593261719,0.43432486057281494,-0.4214966893196106
1760903919753120000,9.4211201171875,0.4127918779850006,0.24251331388950348,-0.41905322670936584
1760903919762809000,9.43080908203125,0.3920224606990814,0.17043127119541168,-0.33719736337661743
1760903919772498200,9.440498291015626,0.514195442199707,0.16310089826583862,-0.22357651591300964
1760903919782187300,9.450187255859374,0.6339249014854431,0.21441353857517242,-0.15515965223312378
1760903919791876600,9.459876708984375,0.7829759120941162,0.3952295184135437,-0.16859868168830872
1760903919801565700,9.469565673828125,1.0627520084381104,0.5064069032669067,-0.23945899307727814
1760903919811254800,9.4792548828125,1.410944938659668,0.56382817029953,-0.3029889166355133
1760903919820944100,9.488944091796874,1.7066035270690918,0.5210676789283752,-0.3811796307563782
1760903919830633200,9.49863330078125,1.936288595199585,0.33047783374786377,-0.46059203147888184
1760903919840322300,9.508322265625,1.9888230562210083,0.07147117704153061,-0.4581485986709595
1760903919850011600,9.51801171875,1.7652465105056763,-0.01649334840476513,-0.3139844834804535
1760903919859700700,9.52770068359375,1.243567943572998,-0.017715077847242355,-0.04886918142437935
1760903919869389800,9.537389892578124,0.5703949928283691,-0.05070177838206291,0.23457208275794983
1760903919879079200,9.5470791015625,0.2234237939119339,-0.17043127119541168,0.37751442193984985
1760903919888768300,9.556768310546875,0.2503018379211426,-0.2107483446598053,0.3799578845500946
1760903919898457300,9.566457275390626,0.31383177638053894,-0.13011419773101807,0.32131487131118774
1760903919908146700,9.576146728515624,0.2637408673763275,-0.1130099818110466,0.21746785938739777
1760903919917835800,9.585835693359375,0.21487168967723846,-0.023823726922273636,0.1026252806186676
1760903919927524900,9.59552490234375,0.2796233594417572,0.12400554865598679,0.021991131827235222
1760903919937214200,9.605214111328126,0.29306238889694214,0.17653992772102356,0.017104214057326317
1760903919946903300,9.6149033203125,0.16966769099235535,0.15699224174022675,0.03176496922969818
1760903919956592400,9.62459228515625,0.015729768201708794,0.05192350596189499,0.021991131827235222
1760903919966281500,9.634281494140625,-0.058795735239982605,-0.10201441496610641,-0.001221729558892548
1760903919975970800,9.643970703125,-0.06612611562013626,-0.17776164412498474,-0.008552107028663158
1760903919985660000,9.653659912109376,-0.06734783947467804,-0.16065743565559387,0.002443459117785096
1760903919995349000,9.663348876953124,-0.09056070446968079,-0.11178825795650482,0.004886918235570192
1760903920005038300,9.673038330078125,-0.12110394239425659,-0.10079269111156464,-0.004886918235570192
1760903920014727400,9.6827275390625,-0.12843431532382965,-0.13622283935546875,-0.03787361457943916
1760903920024416500,9.69241650390625,-0.09178243577480316,-0.23273947834968567,-0.09040798991918564
1760903920034105900,9.70210595703125,-0.052687086164951324,-0.2987128794193268,-0.09162971377372742
1760903920053484000,9.721484130859375,-0.11255183815956116,-0.42455101013183594,-0.10384701192378998
1760903920063173400,9.73117333984375,-0.3165806829929352,-0.5564978122711182,-0.15027274191379547
1760903920072862500,9.740862548828124,-0.5597048401832581,-0.5467239618301392,-0.18692462146282196
1760903920082551600,9.750551513671875,-0.7234166264533997,-0.36224281787872314,-0.18203771114349365
1760903920092240600,9.76024072265625,-0.7820596098899841,-0.205861434340477,-0.16004657745361328
1760903920101930000,9.769929931640625,-0.7600684762001038,-0.21197007596492767,-0.15027274191379547
1760903920111619000,9.779619140625,-0.6696605086326599,-0.33169957995414734,-0.15027274191379547
1760903920121308200,9.78930810546875,-0.49739664793014526,-0.389120876789093,-0.1698204129934311
1760903920130997500,9.79899755859375,-0.26160284876823425,-0.32192572951316833,-0.23945899307727814
1760903920140686600,9.8086865234375,-0.02214384824037552,-0.39767298102378845,-0.28588470816612244
1760903920150375700,9.818375732421876,0.18310672044754028,-0.4563159942626953,-0.30543237924575806
1760903920160065000,9.82806494140625,0.29672756791114807,-0.5222893953323364,-0.3396408259868622
1760903920179443200,9.847443115234375,0.057268574833869934,-0.6371319890022278,-0.3384190797805786
1760903920198821600,9.866821533203124,-0.5535961985588074,-0.39278605580329895,-0.28466299176216125
1760903920208510700,9.8765107421875,-0.7893900275230408,-0.37201663851737976,-0.24434591829776764
1760903920218199800,9.88619970703125,-0.920115053653717,-0.3329212963581085,-0.21991132199764252
1760903920227889200,9.89588916015625,-0.9469931125640869,-0.19853104650974274,-0.31154105067253113
1760903920237578200,9.905578125,-0.8981239199638367,-0.14477495849132538,-0.44959646463394165
1760903920247267300,9.915267333984374,-0.8578068614006042,-0.07024945318698883,-0.5338957905769348
1760903920256956700,9.924956787109375,-0.9445496797561646,0.1899789422750473,-0.5534434914588928
1760903920266645800,9.934645751953125,-1.0276272296905518,0.5503891706466675,-0.5216785073280334
1760903920276334800,9.9443349609375,-1.0264055728912354,0.7788525819778442,-0.4618137776851654
1760903920286024000,9.95402392578125,-0.9335541129112244,0.6774490475654602,-0.38850998878479004
1760903920295713300,9.96371337890625,-0.800385594367981,0.4013381600379944,-0.3078758418560028
1760903920305402400,9.97340234375,-0.6989820003509521,0.16798780858516693,-0.23212862014770508
1760903920315091500,9.983091552734376,-0.6708822250366211,-0.021380268037319183,-0.1539379209280014
1760903920324780800,9.99278076171875,-0.7368556261062622,-0.13133592903614044,-0.09040798991918564
1760903920334470000,10.002469970703125,-0.8688024282455444,-0.23273947834968567,-0.04276053607463837
1760903920344159000,10.012158935546875,-0.9995275139808655,-0.36835145950317383,0.001221729558892548
1760903920353848000,10.02184814453125,-1.0948224067687988,-0.3915643095970154,0.053756099194288254
1760903920363537400,10.031537353515626,-1.1583523750305176,-0.2632827162742615,0.1282816082239151
1760903920373226500,10.0412265625,-1.19866943359375,-0.07757982611656189,0.21868959069252014
1760903920382915600,10.05091552734375,-1.2121084928512573,0.0616973415017128,0.3090975880622864
1760903920392605000,10.06060498046875,-1.1864521503448486,0.06536252796649933,0.3995055556297302
1760903920402294000,10.0702939453125,-1.1302525997161865,-0.05070177838206291,0.471587598323822
1760903920411983000,10.079983154296874,-1.0459532737731934,-0.2828303873538971,0.4984656572341919
1760903920421672400,10.08967236328125,-0.9372192621231079,-0.5772672295570374,0.4581485986709595
1760903920431361500,10.099361572265625,-0.8553634285926819,-0.7470875978469849,0.34574946761131287
1760903920441050600,10.109050537109376,-0.8639155030250549,-0.729983389377594,0.20769402384757996
1760903920450739700,10.11873974609375,-0.9347758293151855,-0.6004800796508789,0.08918625861406326
1760903920460429000,10.128428955078125,-1.0093013048171997,-0.39400777220726013,-0.003665188793092966
1760903920470118100,10.1381181640625,-1.0398445129394531,-0.13622283935546875,-0.08796452730894089
1760903920479807200,10.14780712890625,-1.003192663192749,0.07635809481143951,-0.16737695038318634
1760903920489496300,10.157496337890626,-0.8993456959724426,0.1496618688106537,-0.23212862014770508
1760903920499185700,10.167185546875,-0.7539598345756531,0.09712749719619751,-0.2712239623069763
1760903920508874800,10.176874755859375,-0.6000219583511353,-0.009162971749901772,-0.277332603931427
1760903920518563800,10.186563720703125,-0.4631882309913635,-0.10323614627122879,-0.24923282861709595
1760903920528253200,10.196253173828126,-0.37033677101135254,-0.16554436087608337,-0.19425499439239502
1760903920537942300,10.2059423828125,-0.34345871210098267,-0.18753549456596375,-0.10506874322891235
1760903920547631400,10.21563134765625,-0.388662725687027,-0.15577052533626556,0.01954767294228077
1760903920557320400,10.225320556640625,-0.49861836433410645,-0.0409279391169548,0.17104214429855347
1760903920567009800,10.235009765625,-0.634230375289917,0.09712749719619751,0.32131487131118774
1760903920576699000,10.244698974609374,-0.7527381181716919,0.18142683804035187,0.44348782300949097
1760903920586388000,10.254387939453125,-0.8333722949028015,0.20830489695072174,0.5326740741729736
1760903920596077000,10.2640771484375,-0.8773545622825623,0.22785256803035736,0.5974257588386536
1760903920605766400,10.273766357421875,-0.8724676370620728,0.24862197041511536,0.6267472505569458
1760903920615455500,10.28345556640625,-0.8126028776168823,0.2559523284435272,0.6084213256835938
1760903920625144600,10.29314453125,-0.7136427760124207,0.31581708788871765,0.5338957905769348
1760903920634833700,10.302833740234375,-0.6000219583511353,0.33536475896835327,0.401949018239975
1760903920644523000,10.31252294921875,-0.5303833484649658,0.16798780858516693,0.27977606654167175
1760903920654212000,10.322212158203126,-0.5474875569343567,0.13011419773101807,0.19181154668331146
1760903920663901200,10.331901123046874,-0.6097957491874695,0.16798780858516693,0.1490510106086731
1760903920673590500,10.341590576171875,-0.672104001045227,0.2156352698802948,0.13683371245861053
1760903920683279600,10.351279541015625,-0.716086208820343,0.27916520833969116,0.14660754799842834
1760903920702657800,10.37065771484375,-0.7625119686126709,0.4196641147136688,0.16859868168830872
1760903920712347100,10.38034716796875,-0.7502946853637695,0.48441576957702637,0.15149445831775665
1760903920722036200,10.3900361328125,-0.7087558507919312,0.5149590373039246,0.1026252806186676
1760903920751103700,10.419103759765624,-0.5279398560523987,0.3646862804889679,-0.050090912729501724
1760903920760792800,10.428792724609375,-0.4790706932544708,0.30482152104377747,-0.034208428114652634
1760903920770482000,10.43848193359375,-0.43142324686050415,0.24251331388950348,0.010995565913617611
1760903920780171000,10.4481708984375,-0.378888875246048,0.16310089826583862,0.06963858753442764
1760903920789860400,10.4578603515625,-0.31902414560317993,0.07880155742168427,0.12095122784376144
1760903920799549400,10.467549560546875,-0.25549420714378357,-0.01282816007733345,0.17226386070251465
1760903920809238500,10.477238525390625,-0.1931859850883484,-0.08613193035125732,0.2211330533027649
1760903920818927600,10.486927734375,-0.13698641955852509,-0.12156209349632263,0.26389357447624207
1760903920828617000,10.496616943359374,-0.12354740500450134,-0.09101885557174683,0.2919933497905731
1760903920838306000,10.50630615234375,-0.15409064292907715,-0.006719512399286032,0.27977606654167175
1760903920847995100,10.5159951171875,-0.20540328323841095,0.08979712426662445,0.21135921776294708
1760903920857684200,10.525684326171875,-0.25060728192329407,0.14477495849132538,0.1026252806186676
1760903920867373300,10.535373291015626,-0.2811505198478699,0.16065743565559387,-0.023212861269712448
1760903920877062700,10.545062744140624,-0.2945895493030548,0.18264856934547424,-0.14660754799842834
1760903920886751700,10.554751708984375,-0.2945895493030548,0.205861434340477,-0.2724456787109375
1760903920896440800,10.56444091796875,-0.2750418782234192,0.13988803327083588,-0.3995055556297302
1760903920906130000,10.5741298828125,-0.22250749170780182,0.06291907280683517,-0.4862483739852905
1760903920915819300,10.5838193359375,-0.12843431532382965,0.08979712426662445,-0.5033525824546814
1760903920925508400,10.59350830078125,-0.0038179049734026194,0.20341797173023224,-0.4508182108402252
1760903920935197400,10.603197509765625,0.1305723488330841,0.24373504519462585,-0.36163195967674255
1760903920944886500,10.612886474609375,0.23075416684150696,0.15699224174022675,-0.26511532068252563
1760903920954576000,10.622575927734376,0.26618432998657227,-0.001832594396546483,-0.18692462146282196
1760903920964265000,10.632264892578124,0.2124282270669937,-0.21807873249053955,-0.15027274191379547
1760903920973954000,10.6419541015625,0.025503603741526604,-0.40866854786872864,-0.18081597983837128
1760903920983643100,10.65164306640625,-0.2383899837732315,-0.5955931544303894,-0.2577849328517914
1760903920993332500,10.66133251953125,-0.4766272306442261,-0.8362739086151123,-0.34208428859710693
1760903921003021600,10.671021484375,-0.6305651664733887,-1.0207550525665283,-0.41294458508491516
1760903921012710700,10.680710693359375,-0.6574432253837585,-1.0855066776275635,-0.4508182108402252
1760903921022399700,10.690399658203125,-0.5682569742202759,-1.0525200366973877,-0.43982264399528503
1760903921032089000,10.700089111328126,-0.41065385937690735,-0.9694424271583557,-0.37140578031539917
1760903921041778200,10.709778076171874,-0.16752967238426208,-0.9547816514968872,-0.3347539007663727
1760903921051467300,10.71946728515625,0.1049160286784172,-0.953559935092926,-0.32620179653167725
1760903921061156400,10.72915625,0.3052796721458435,-0.905912458896637,-0.3347539007663727
1760903921070845400,10.738845458984375,0.3321577310562134,-0.7153226733207703,-0.3799578845500946
1760903921080534800,10.74853466796875,0.2185368686914444,-0.6359102129936218,-0.4740310609340668
1760903921090223900,10.758223876953124,0.05849030241370201,-0.8045089244842529,-0.6108647584915161
1760903921099913000,10.767912841796875,-0.0746782198548317,-1.0293071269989014,-0.768467903137207
1760903921109602000,10.77760205078125,-0.1308777779340744,-1.1343759298324585,-0.8967494964599609
1760903921119291400,10.78729150390625,-0.11377356201410294,-1.1026109457015991,-0.9688315391540527
1760903921128980500,10.79698046875,-0.036804601550102234,-0.9755510687828064,-0.9798271059989929
1760903921138669600,10.806669677734375,0.11102467030286789,-0.7825177907943726,-0.9382883310317993
1760903921148358700,10.816358642578125,0.3113883137702942,-0.5626064538955688,-0.861319363117218
1760903921158047700,10.8260478515625,0.5337430834770203,-0.34636032581329346,-0.750141978263855
1760903921167737000,10.835737060546874,0.7622065544128418,-0.1288924664258957,-0.6071996092796326
1760903921177426200,10.84542626953125,0.9650136232376099,0.11911863088607788,-0.4557051360607147
1760903921187115300,10.855115234375,1.0847431421279907,0.472198486328125,-0.3249800503253937
1760903921196804400,10.864804443359375,1.1568251848220825,0.832608699798584,-0.2052505612373352
1760903921206493700,10.87449365234375,1.2093595266342163,1.0476330518722534,-0.07452550530433655
1760903921216182800,10.884182861328124,1.2179116010665894,1.1490366458892822,0.056199558079242706
1760903921225872000,10.893871826171875,1.1714859008789062,1.183245062828064,0.17715078592300415
1760903921235561000,10.90356103515625,1.07863450050354,1.1783581972122192,0.2614501118659973
1760903921245250000,10.91325,0.9552397727966309,1.063515543937683,0.30543237924575806
1760903921254939400,10.922939453125,0.7890845537185669,0.6969966888427734,0.28954991698265076
1760903921264628500,10.93262841796875,0.569173276424408,0.1081230640411377,0.21746785938739777
1760903921274317600,10.942317626953125,0.3248273432254791,-0.46975502371788025,0.1185077652335167
1760903921284006700,10.952006591796875,0.08659008145332336,-0.8472694754600525,0.021991131827235222
1760903921293695700,10.96169580078125,-0.12843431532382965,-1.0060943365097046,-0.07452550530433655
1760903921303385000,10.971385009765624,-0.27137666940689087,-0.9767727851867676,-0.19669845700263977
1760903921313074200,10.98107421875,-0.305585116147995,-0.8643736839294434,-0.31154105067253113
1760903921322763300,10.99076318359375,-0.26160284876823425,-0.8032872080802917,-0.39217519760131836
1760903921332452400,11.000452392578126,-0.20540328323841095,-0.7177661061286926,-0.4581485986709595
1760903921342141400,11.010141357421874,-0.18341214954853058,-0.6151408553123474,-0.5192350745201111
1760903921351830800,11.019830810546875,-0.18829907476902008,-0.5332849621772766,-0.5717694163322449
1760903921361519900,11.029519775390625,-0.20662501454353333,-0.5161807537078857,-0.6023126840591431
1760903921371209000,11.039208984375,-0.2493855506181717,-0.5699368119239807,-0.6084213256835938
1760903921380898000,11.04889794921875,-0.32879796624183655,-0.6359102129936218,-0.5876519083976746
1760903921390587400,11.05858740234375,-0.44608399271965027,-0.6652317643165588,-0.5351175665855408
1760903921400276500,11.0682763671875,-0.6012436747550964,-0.5907062292098999,-0.4569268524646759
1760903921409965600,11.077965576171875,-0.7771727442741394,-0.3597993552684784,-0.37140578031539917
1760903921419654700,11.087654541015626,-0.9286671876907349,0.009162971749901772,-0.2761108875274658
1760903921429343700,11.09734375,-1.021518588066101,0.40744680166244507,-0.1441640853881836
1760903921439032800,11.10703271484375,-1.0618356466293335,0.7483093738555908,0.008552107028663158
1760903921448722200,11.11672216796875,-1.0716094970703125,0.9572250843048096,0.1649334877729416
1760903921458411300,11.126411376953126,-1.0679444074630737,0.8839213252067566,0.3029889166355133
1760903921468100400,11.136100341796874,-1.0569487810134888,0.42332929372787476,0.3652971386909485
1760903921477789400,11.14578955078125,-1.042288064956665,-0.22418737411499023,0.3494146466255188
1760903921487478800,11.155478759765625,-0.9897536635398865,-0.6713404059410095,0.2968802750110626
1760903921497168000,11.16516796875,-0.9042325615882874,-0.7263182401657104,0.2516762912273407
1760903921506857000,11.17485693359375,-0.8235984444618225,-0.4734202027320862,0.25534147024154663
1760903921516546000,11.184546142578125,-0.7588467597961426,-0.1496618688106537,0.31520622968673706
1760903921526235100,11.194235107421875,-0.7686206102371216,0.0616973415017128,0.40317076444625854
1760903921535924500,11.203924560546875,-0.8235984444618225,0.09957095980644226,0.5045742988586426
1760903921545613600,11.213613525390626,-0.8468112945556641,-0.01893680728971958,0.5986474752426147
1760903921555302700,11.223302734375,-0.8211549520492554,-0.12767073512077332,0.675616443157196
1760903921564991700,11.23299169921875,-0.7735075354576111,-0.18142683804035187,0.7232639193534851
1760903921574680800,11.242680908203125,-0.7197514176368713,-0.2571740746498108,0.7293725609779358
1760903921584370000,11.252369873046876,-0.7368556261062622,-0.25961753726005554,0.6524035930633545
1760903921594059300,11.262059326171874,-0.780837893486023,-0.379347026348114,0.5131264328956604
1760903921603748400,11.271748291015625,-0.790611743927002,-0.4379900395870209,0.3481929302215576
1760903921613437400,11.2814375,-0.7918334603309631,-0.36224281787872314,0.21135921776294708
1760903921623126500,11.29112646484375,-0.7967203855514526,-0.2767217457294464,0.10995566099882126
1760903921632815600,11.300815673828126,-0.8504765033721924,-0.13500112295150757,0.021991131827235222
1760903921642504700,11.310504638671874,-0.9274454712867737,-0.01649334840476513,-0.06352993845939636
1760903921652194000,11.320194091796875,-0.9445496797561646,-0.02626718580722809,-0.1185077652335167
1760903921661883100,11.329883056640625,-0.9091194868087769,-0.03237583488225937,-0.15515965223312378
1760903921671572200,11.339572265625,-0.8455895781517029,-0.09346231073141098,-0.2003636509180069
1760903921681261300,11.34926123046875,-0.7490729093551636,-0.24495677649974823,-0.26511532068252563
1760903921690950400,11.358950439453125,-0.624456524848938,-0.4196641147136688,-0.3274235129356384
1760903921700639700,11.3686396484375,-0.5096139311790466,-0.4831940531730652,-0.3860665261745453
1760903921710328800,11.378328857421875,-0.43631017208099365,-0.5039634704589844,-0.4471530318260193
1760903921720018000,11.388017822265626,-0.4033234715461731,-0.5491674542427063,-0.5082395076751709
1760903921729707000,11.39770703125,-0.40088000893592834,-0.5064069032669067,-0.5375609993934631
1760903921739396000,11.40739599609375,-0.4277580678462982,-0.3634645342826843,-0.5204567909240723
1760903921749085400,11.41708544921875,-0.49373146891593933,-0.2009745091199875,-0.46547895669937134
1760903921758774500,11.4267744140625,-0.5755873322486877,-0.037262752652168274,-0.3787361681461334
1760903921768463600,11.436463623046874,-0.64278244972229,0.10201441496610641,-0.26511532068252563
1760903921778152700,11.446152587890625,-0.6696605086326599,0.18753549456596375,-0.12583814561367035
1760903921787841800,11.455841796875,-0.6647735834121704,0.2412915825843811,0.023212861269712448
1760903921797531000,11.46553076171875,-0.6476693749427795,0.2718348205089569,0.16126830875873566
1760903921807220200,11.47522021484375,-0.6501128673553467,0.2706131041049957,0.26878049969673157
1760903921816909300,11.484909423828125,-0.6782126426696777,0.2315177470445633,0.3335321843624115
1760903921826598400,11.494598388671875,-0.7270817756652832,0.18753549456596375,0.3481929302215576
1760903921836287500,11.50428759765625,-0.7796161770820618,0.10323614627122879,0.3029889166355133
1760903921845976600,11.5139765625,-0.7759509682655334,-0.043371398001909256,0.2309068888425827
1760903921855665700,11.523665771484374,-0.7099775671958923,-0.07880155742168427,0.15760311484336853
1760903921865355000,11.53335498046875,-0.633008599281311,0.004276053514331579,0.07941242307424545
1760903921875044000,11.543044189453125,-0.5352702736854553,0.09957095980644226,-0.008552107028663158
1760903921884733200,11.552733154296876,-0.42042768001556396,0.16065743565559387,-0.11117739230394363
1760903921894422300,11.56242236328125,-0.34345871210098267,0.1386663019657135,-0.22235478460788727
1760903921904111400,11.572111328125,-0.3116937577724457,0.10445787757635117,-0.33597561717033386
1760903921913800400,11.581800537109375,-0.29825472831726074,0.07269290834665298,-0.4373791813850403
1760903921923489800,11.59148974609375,-0.2835939824581146,-0.039706211537122726,-0.5192350745201111
1760903921933179000,11.601178955078124,-0.25549420714378357,-0.12644900381565094,-0.564439058303833
1760903921942868000,11.610867919921875,-0.20662501454353333,-0.18631376326084137,-0.5595521330833435
1760903921952557000,11.62055712890625,-0.14309507608413696,-0.25473061203956604,-0.5045742988586426
1760903921971935200,11.639935302734376,-0.014813470654189587,-0.2620609998703003,-0.25900667905807495
1760903921981624600,11.64962451171875,0.015729768201708794,-0.2254091054201126,-0.09040798991918564
1760903921991313700,11.659313720703125,0.014508038759231567,-0.16310089826583862,0.09651663154363632
1760903922001002800,11.669002685546875,-0.023365577682852745,-0.04459312930703163,0.28954991698265076
1760903922010691800,11.67869189453125,-0.08689551800489426,0.12156209349632263,0.4728093445301056
1760903922020381000,11.688380859375,-0.1406516134738922,0.32681265473365784,0.6291907429695129
1760903922030070000,11.698070068359375,-0.15409064292907715,0.5198459029197693,0.7367029190063477
1760903922039759400,11.70775927734375,-0.1357647031545639,0.6065887212753296,0.7904590368270874
1760903922049448400,11.717448486328125,-0.1101083755493164,0.5577195286750793,0.794124186038971
1760903922059137500,11.727137451171876,-0.10277800261974335,0.4673115611076355,0.7464767694473267
1760903922068826600,11.73682666015625,-0.11621702462434769,0.40866854786872864,0.6646208763122559
1760903922078515700,11.746515625,-0.12354740500450134,0.37812530994415283,0.5656607747077942
1760903922088204800,11.756204833984375,-0.10644318908452988,0.39400777220726013,0.46914416551589966
1760903922097894100,11.76589404296875,-0.04780016839504242,0.4465421438217163,0.3909534513950348
1760903922107583200,11.775583251953124,0.04505127668380737,0.5015199780464172,0.34208428859710693
1760903922117272300,11.785272216796875,0.14278964698314667,0.5418370366096497,0.31642794609069824
1760903922126961400,11.79496142578125,0.22098033130168915,0.5809323787689209,0.3139844834804535
1760903922136650500,11.804650390625,0.2857320010662079,0.6126973628997803,0.3335321843624115
1760903922146339600,11.814339599609376,0.35048365592956543,0.6102539300918579,0.37140578031539917
1760903922156028700,11.824028564453124,0.4066832363605499,0.5528326034545898,0.4251618981361389
1760903922165718000,11.833718017578125,0.425009161233902,0.45387253165245056,0.471587598323822
1760903922175407000,11.843406982421875,0.37858346104621887,0.3500255048274994,0.48991355299949646
1760903922185096200,11.85309619140625,0.26129740476608276,0.22663083672523499,0.4569268524646759
1760903922194785300,11.862785400390624,0.08659008145332336,0.07757982611656189,0.3750709891319275
1760903922204474400,11.872474365234375,-0.08933897316455841,-0.04459312930703163,0.2712239623069763
1760903922214163500,11.88216357421875,-0.20051635801792145,-0.09957095980644226,0.18692462146282196
1760903922223852800,11.891852783203126,-0.21151192486286163,-0.0616973415017128,0.15271618962287903
1760903922233542000,11.9015419921875,-0.13820815086364746,0.031154103577136993,0.1637117564678192
1760903922243231000,11.91123095703125,-0.02825249545276165,0.09834922850131989,0.19914191961288452
1760903922252920000,11.920920166015625,0.07803797721862793,0.08002328872680664,0.24312418699264526
1760903922262609200,11.930609130859375,0.16355904936790466,-0.011606430634856224,0.27366742491722107
1760903922272298200,11.94029833984375,0.2124282270669937,-0.12156209349632263,0.2712239623069763
1760903922281987300,11.9499873046875,0.2087630331516266,-0.1948658674955368,0.21746785938739777
1760903922291676700,11.9596767578125,0.16966769099235535,-0.21319180727005005,0.12583814561367035
1760903922301365800,11.96936572265625,0.12812888622283936,-0.185092031955719,0.028099779039621353
1760903922311054800,11.979054931640626,0.09636391699314117,-0.12767073512077332,-0.0513126403093338
1760903922320744000,11.988743896484374,0.0743727833032608,-0.06902772188186646,-0.09162971377372742
1760903922330433000,11.99843310546875,0.06826414167881012,-0.015271619893610477,-0.08918625861406326
1760903922340122000,12.0081220703125,0.064598947763443,0.01282816007733345,-0.05497783049941063
1760903922349811500,12.0178115234375,0.060933761298656464,-0.001832594396546483,0.002443459117785096
1760903922359500500,12.02750048828125,0.06582067906856537,-0.06780599057674408,0.06475166976451874
1760903922369189600,12.037189697265624,0.07315105944871902,-0.1692095398902893,0.11362084746360779
1760903922378878700,12.046878662109375,0.0792597085237503,-0.2632827162742615,0.13561198115348816
1760903922388567800,12.05656787109375,0.0743727833032608,-0.30604326725006104,0.12217295914888382
1760903922398257000,12.0662568359375,0.04505127668380737,-0.2779434621334076,0.07086031138896942
1760903922407946000,12.075946044921874,-0.0025961752980947495,-0.20952661335468292,-0.013439024798572063
1760903922417635000,12.085635009765625,-0.049021899700164795,-0.14477495849132538,-0.10629047453403473
1760903922427324400,12.095324462890625,-0.0746782198548317,-0.09101885557174683,-0.17104214429855347
1760903922437013500,12.105013427734375,-0.08323032408952713,-0.02871064469218254,-0.18203771114349365
1760903922446702600,12.11470263671875,-0.09300415962934494,0.02260199747979641,-0.1441640853881836
1760903922456391700,12.1243916015625,-0.10888664424419403,0.04581485688686371,-0.08063415437936783
1760903922466080800,12.134080810546875,-0.12843431532382965,0.02626718580722809,-0.013439024798572063
1760903922475769900,12.143769775390625,-0.1418733447790146,-0.029932374134659767,0.04153880476951599
1760903922485459200,12.153459228515626,-0.14920371770858765,-0.09957095980644226,0.07086031138896942
1760903922495148300,12.163148193359374,-0.15409064292907715,-0.143553227186203,0.07452550530433655
1760903922504837400,12.17283740234375,-0.16019928455352783,-0.14477495849132538,0.053756099194288254
1760903922514526500,12.1825263671875,-0.17486004531383514,-0.11545344442129135,0.013439024798572063
1760903922524215600,12.192215576171876,-0.1980729103088379,-0.07635809481143951,-0.03543015569448471
1760903922533904600,12.201904541015624,-0.2286161482334137,-0.021380268037319183,-0.07574722915887833
1760903922543593700,12.21159375,-0.26282456517219543,0.04459312930703163,-0.09529490768909454
1760903922553283000,12.221282958984375,-0.2860374450683594,0.10201441496610641,-0.08307760953903198
1760903922562972200,12.23097216796875,-0.2945895493030548,0.15699224174022675,-0.03543015569448471
1760903922572661200,12.2406611328125,-0.28848087787628174,0.205861434340477,0.03787361457943916
1760903922582350300,12.250350341796874,-0.28237223625183105,0.23273947834968567,0.12461641430854797
1760903922592039400,12.260039306640625,-0.2860374450683594,0.21930044889450073,0.20891575515270233
1760903922601728500,12.269728515625,-0.2994764447212219,0.1692095398902893,0.2834412455558777
1760903922611417900,12.27941796875,-0.3251327872276306,0.08368847519159317,0.34086254239082336
1760903922621107000,12.28910693359375,-0.3617846667766571,-0.037262752652168274,0.37140578031539917
1760903922630796000,12.298796142578125,-0.3984365463256836,-0.18142683804035187,0.37629270553588867
1760903922640485000,12.308485107421875,-0.42164942622184753,-0.34147340059280396,0.35796675086021423
1760903922650174200,12.31817431640625,-0.42531460523605347,-0.500298261642456,0.3225366175174713
1760903922659863300,12.32786328125,-0.42164942622184753,-0.618806004524231,0.26878049969673157
1760903922669552400,12.337552490234375,-0.41554075479507446,-0.6615665555000305,0.19669845700263977
1760903922679241500,12.347241455078125,-0.3923279047012329,-0.6151408553123474,0.11362084746360779
1760903922688930800,12.356930908203125,-0.35445427894592285,-0.4880809485912323,0.03298669680953026
1760903922698620000,12.366619873046876,-0.3153589367866516,-0.30970844626426697,-0.024434590712189674
1760903922708309000,12.37630908203125,-0.295811265707016,-0.14233149588108063,-0.03909534588456154
1760903922717998000,12.385998046875,-0.3153589367866516,-0.053145237267017365,-0.024434590712189674
1760903922727687200,12.395687255859375,-0.39599308371543884,-0.10567960888147354,-0.01588248461484909
1760903922737376500,12.40537646484375,-0.5328267812728882,-0.2559523284435272,-0.034208428114652634
